{
    "AE": [
        "STUDYID",
        "USUBJID",
        "SPDEVID",
        "AESEQ",
        "AEGRPID",
        "AEREFID",
        "AESPID",
        "AETERM",
        "AEMODIFY",
        "AELLT",
        "AELLTCD",
        "AEDECOD",
        "AEPTCD",
        "AEHLT",
        "AEHLTCD",
        "AEHLGT",
        "AEHLGTCD",
        "AEBDSYCD",
        "AESOC",
        "AESOCCD",
        "AEACNOTH",
        "AERELNST",
        "TAETORD",
        "AESTDY",
        "AEENDY",
        "AEENTPT"
    ],
    "AG": [
        "STUDYID",
        "USUBJID",
        "AGSEQ",
        "AGGRPID",
        "AGSPID",
        "AGLNKID",
        "AGLNKGRP",
        "AGTRT",
        "AGMODIFY",
        "AGREASND",
        "AGDOSE",
        "AGDOSTXT",
        "VISITNUM",
        "VISIT",
        "VISITDY",
        "TAETORD",
        "AGSTDY",
        "AGENDY",
        "AGSTTPT",
        "AGENTPT"
    ],
    "BE": [
        "STUDYID",
        "USUBJID",
        "SPDEVID",
        "BESEQ",
        "BEGRPID",
        "BEREFID",
        "BESPID",
        "BETERM",
        "BEMODIFY",
        "BECAT",
        "BESCAT",
        "BEPRTYID",
        "VISITNUM",
        "VISIT",
        "VISITDY",
        "BESTDY",
        "BEENDY"
    ],
    "BS": [
        "STUDYID",
        "USUBJID",
        "SPDEVID",
        "BSSEQ",
        "BSGRPID",
        "BSREFID",
        "BSSPID",
        "BSCAT",
        "BSSCAT",
        "BSORRES",
        "BSSTRESC",
        "BSSTRESN",
        "BSREASND",
        "BSNAM",
        "VISITNUM",
        "VISIT",
        "VISITDY",
        "BSDY",
        "BSTPT",
        "BSTPTNUM",
        "BSTPTREF"
    ],
    "CE": [
        "STUDYID",
        "USUBJID",
        "CESEQ",
        "CEGRPID",
        "CEREFID",
        "CESPID",
        "CETERM",
        "CEREASND",
        "TAETORD",
        "CEDY",
        "CESTDY",
        "CEENDY",
        "CESTTPT",
        "CEENTPT"
    ],
    "CM": [
        "STUDYID",
        "USUBJID",
        "CMSEQ",
        "CMGRPID",
        "CMSPID",
        "CMTRT",
        "CMMODIFY",
        "CMDECOD",
        "CMCAT",
        "CMSCAT",
        "CMREASND",
        "CMINDC",
        "CMCLAS",
        "CMCLASCD",
        "CMDOSE",
        "CMDOSTXT",
        "CMDOSTOT",
        "CMDOSRGM",
        "CMADJ",
        "CMRSDISC",
        "TAETORD",
        "CMSTDY",
        "CMENDY",
        "CMSTTPT",
        "CMENTPT"
    ],
    "CO": [
        "STUDYID",
        "USUBJID",
        "COSEQ",
        "IDVARVAL",
        "COREF",
        "COVAL",
        "CODY"
    ],
    "CP": [
        "STUDYID",
        "USUBJID",
        "CPSEQ",
        "CPGRPID",
        "CPREFID",
        "CPSPID",
        "CPLNKID",
        "CPLNKGRP",
        "CPSBMRKS",
        "CPCSMRKS",
        "CPCNDAGT",
        "CPBDAGNT",
        "CPABCLID",
        "CPMRKSTR",
        "CPGATE",
        "CPGATDEF",
        "CPSPTSTD",
        "CPSCAT",
        "CPTSTPNL",
        "CPORRES",
        "CPORNRLO",
        "CPORNRHI",
        "CPSTRESC",
        "CPSTRESN",
        "CPSTNRLO",
        "CPSTNRHI",
        "CPREASND",
        "CPNAM",
        "CPANMETH",
        "VISITNUM",
        "VISIT",
        "VISITDY",
        "TAETORD",
        "CPDY",
        "CPTPT",
        "CPTPTNUM",
        "CPTPTREF"
    ],
    "CV": [
        "STUDYID",
        "USUBJID",
        "CVSEQ",
        "CVGRPID",
        "CVREFID",
        "CVSPID",
        "CVLNKID",
        "CVLNKGRP",
        "CVORRES",
        "CVSTRESN",
        "CVREASND",
        "VISITNUM",
        "VISIT",
        "VISITDY",
        "TAETORD",
        "CVDY",
        "CVTPT",
        "CVTPTNUM",
        "CVTPTREF"
    ],
    "DA": [
        "STUDYID",
        "USUBJID",
        "DASEQ",
        "DAGRPID",
        "DAREFID",
        "DASPID",
        "DALNKID",
        "DALNKGRP",
        "DAORRES",
        "DASTRESC",
        "DASTRESN",
        "DAREASND",
        "VISITNUM",
        "VISIT",
        "VISITDY",
        "TAETORD",
        "DADY"
    ],
    "DD": [
        "STUDYID",
        "USUBJID",
        "DDSEQ",
        "DDORRES",
        "DDSTRESC",
        "DDDY"
    ],
    "DM": [
        "STUDYID",
        "USUBJID",
        "SUBJID",
        "INVID",
        "INVNAM",
        "AGE",
        "ACTARMUD",
        "COUNTRY",
        "DMDY"
    ],
    "DS": [
        "STUDYID",
        "USUBJID",
        "DSSEQ",
        "DSGRPID",
        "DSREFID",
        "DSSPID",
        "DSTERM",
        "DSDY",
        "DSSTDY"
    ],
    "DV": [
        "STUDYID",
        "USUBJID",
        "DVSEQ",
        "DVREFID",
        "DVSPID",
        "DVTERM",
        "TAETORD",
        "DVSTDY",
        "DVENDY"
    ],
    "EC": [
        "STUDYID",
        "USUBJID",
        "ECSEQ",
        "ECGRPID",
        "ECREFID",
        "ECSPID",
        "ECLNKID",
        "ECLNKGRP",
        "ECREASOC",
        "ECDOSE",
        "ECDOSTXT",
        "ECDOSTOT",
        "ECDOSRGM",
        "ECLOT",
        "ECPSTRG",
        "ECADJ",
        "TAETORD",
        "ECSTDY",
        "ECENDY",
        "ECTPT",
        "ECTPTNUM",
        "ECTPTREF"
    ],
    "EG": [
        "STUDYID",
        "USUBJID",
        "SPDEVID",
        "EGSEQ",
        "EGGRPID",
        "EGREFID",
        "EGSPID",
        "EGBEATNO",
        "EGORRES",
        "EGSTRESN",
        "EGREASND",
        "EGXFN",
        "EGNAM",
        "EGREPNUM",
        "VISITNUM",
        "VISIT",
        "VISITDY",
        "TAETORD",
        "EGDY",
        "EGTPT",
        "EGTPTNUM",
        "EGTPTREF"
    ],
    "EX": [
        "STUDYID",
        "USUBJID",
        "EXSEQ",
        "EXGRPID",
        "EXREFID",
        "EXSPID",
        "EXLNKID",
        "EXLNKGRP",
        "EXDOSE",
        "EXDOSTXT",
        "EXDOSRGM",
        "EXLOT",
        "TAETORD",
        "EXSTDY",
        "EXENDY",
        "EXTPT",
        "EXTPTNUM",
        "EXTPTREF"
    ],
    "FA": [
        "STUDYID",
        "USUBJID",
        "FASEQ",
        "FAGRPID",
        "FASPID",
        "FAOBJ",
        "FAORRES",
        "FASTRESC",
        "FASTRESN",
        "FAREASND",
        "VISITNUM",
        "VISIT",
        "VISITDY",
        "TAETORD",
        "FADY"
    ],
    "FT": [
        "STUDYID",
        "USUBJID",
        "FTSEQ",
        "FTGRPID",
        "FTREFID",
        "FTSPID",
        "FTSCAT",
        "FTORRES",
        "FTSTRESC",
        "FTSTRESN",
        "FTREASND",
        "FTXFN",
        "FTNAM",
        "FTREPNUM",
        "VISITNUM",
        "VISIT",
        "VISITDY",
        "TAETORD",
        "FTDY",
        "FTTPT",
        "FTTPTNUM",
        "FTTPTREF"
    ],
    "GF": [
        "STUDYID",
        "USUBJID",
        "SPDEVID",
        "NHOID",
        "GFSEQ",
        "GFGRPID",
        "GFREFID",
        "GFSPID",
        "GFLNKID",
        "GFLNKGRP",
        "GFCAT",
        "GFSCAT",
        "GFORRES",
        "GFORREF",
        "GFSTRESC",
        "GFSTRESN",
        "GFSTREFC",
        "GFSTREFN",
        "GFRESCAT",
        "GFGENREF",
        "GFCHROM",
        "GFGENLOC",
        "GFGENSR",
        "GFSEQID",
        "GFPVRID",
        "GFCOPYID",
        "GFREASND",
        "GFXFN",
        "GFNAM",
        "GFRUNID",
        "GFLLOQ",
        "GFREPNUM",
        "VISITNUM",
        "VISIT",
        "VISITDY",
        "GFDY",
        "GFTPT",
        "GFTPTNUM",
        "GFTPTREF"
    ],
    "HO": [
        "STUDYID",
        "USUBJID",
        "HOSEQ",
        "HOGRPID",
        "HOREFID",
        "HOSPID",
        "HOTERM",
        "HOREASND",
        "TAETORD",
        "HODY",
        "HOSTDY",
        "HOENDY",
        "HOSTTPT",
        "HOENTPT"
    ],
    "IE": [
        "STUDYID",
        "USUBJID",
        "IESEQ",
        "IESPID",
        "IETEST",
        "VISITNUM",
        "VISIT",
        "VISITDY",
        "TAETORD",
        "IEDY"
    ],
    "IS": [
        "STUDYID",
        "USUBJID",
        "NHOID",
        "ISSEQ",
        "ISGRPID",
        "ISREFID",
        "ISSPID",
        "ISCNDAGT",
        "ISMSCBCE",
        "ISTSTDTL",
        "ISORRES",
        "ISORNRLO",
        "ISORNRHI",
        "ISSTRESC",
        "ISSTRESN",
        "ISSTNRLO",
        "ISSTNRHI",
        "ISSTNRC",
        "ISREASND",
        "ISNAM",
        "ISLLOQ",
        "VISITNUM",
        "VISIT",
        "VISITDY",
        "TAETORD",
        "ISDY",
        "ISENDY",
        "ISTPT",
        "ISTPTNUM",
        "ISTPTREF"
    ],
    "LB": [
        "STUDYID",
        "USUBJID",
        "LBSEQ",
        "LBGRPID",
        "LBREFID",
        "LBSPID",
        "LBBDAGNT",
        "LBORRES",
        "LBORNRLO",
        "LBORNRHI",
        "LBLLOD",
        "LBSTRESN",
        "LBSTNRLO",
        "LBSTNRHI",
        "LBSTNRC",
        "LBREASND",
        "LBNAM",
        "VISITNUM",
        "VISIT",
        "VISITDY",
        "TAETORD",
        "LBDY",
        "LBENDY",
        "LBTPT",
        "LBTPTNUM",
        "LBTPTREF"
    ],
    "MB": [
        "STUDYID",
        "USUBJID",
        "FOCID",
        "MBSEQ",
        "MBGRPID",
        "MBREFID",
        "MBSPID",
        "MBLNKID",
        "MBLNKGRP",
        "MBORRES",
        "MBSTRESC",
        "MBSTRESN",
        "MBRESCAT",
        "MBREASND",
        "MBNAM",
        "MBLOINC",
        "VISITNUM",
        "VISIT",
        "VISITDY",
        "TAETORD",
        "MBDY",
        "MBTPT",
        "MBTPTNUM",
        "MBTPTREF"
    ],
    "MH": [
        "STUDYID",
        "USUBJID",
        "MHSEQ",
        "MHGRPID",
        "MHREFID",
        "MHSPID",
        "MHTERM",
        "MHMODIFY",
        "MHREASND",
        "TAETORD",
        "MHDY",
        "MHENTPT"
    ],
    "MI": [
        "STUDYID",
        "USUBJID",
        "MISEQ",
        "MIGRPID",
        "MIREFID",
        "MISPID",
        "MIORRES",
        "MISTRESC",
        "MISTRESN",
        "MIREASND",
        "MINAM",
        "VISITNUM",
        "VISIT",
        "VISITDY",
        "TAETORD",
        "MIDY"
    ],
    "MK": [
        "STUDYID",
        "USUBJID",
        "MKSEQ",
        "MKGRPID",
        "MKREFID",
        "MKSPID",
        "MKLNKID",
        "MKLNKGRP",
        "MKORRES",
        "MKSTRESC",
        "MKSTRESN",
        "MKREASND",
        "VISITNUM",
        "VISIT",
        "VISITDY",
        "TAETORD",
        "MKDY",
        "MKTPT",
        "MKTPTNUM",
        "MKTPTREF"
    ],
    "ML": [
        "STUDYID",
        "USUBJID",
        "MLSEQ",
        "MLGRPID",
        "MLSPID",
        "MLREASND",
        "MLDOSE",
        "MLDOSTXT",
        "VISITNUM",
        "VISIT",
        "VISITDY",
        "TAETORD",
        "MLDY",
        "MLSTDY",
        "MLENDY",
        "MLTPT",
        "MLTPTNUM",
        "MLTPTREF",
        "MIDS",
        "RELMIDS"
    ],
    "MS": [
        "STUDYID",
        "USUBJID",
        "NHOID",
        "MSSEQ",
        "MSGRPID",
        "MSREFID",
        "MSSPID",
        "MSLNKID",
        "MSAGENT",
        "MSCONC",
        "MSTSTDTL",
        "MSORRES",
        "MSSTRESC",
        "MSSTRESN",
        "MSREASND",
        "MSXFN",
        "MSNAM",
        "MSLOINC",
        "MSANMETH",
        "MSLLOQ",
        "MSULOQ",
        "MSREPNUM",
        "VISITNUM",
        "VISIT",
        "VISITDY",
        "TAETORD",
        "MSDY",
        "MSTPT",
        "MSTPTNUM",
        "MSTPTREF",
        "MSEVINTX"
    ],
    "NV": [
        "STUDYID",
        "USUBJID",
        "FOCID",
        "NVSEQ",
        "NVGRPID",
        "NVREFID",
        "NVSPID",
        "NVLNKID",
        "NVLNKGRP",
        "NVCAT",
        "NVSCAT",
        "NVORRES",
        "NVSTRESC",
        "NVSTRESN",
        "NVREASND",
        "VISITNUM",
        "VISIT",
        "VISITDY",
        "TAETORD",
        "NVDY",
        "NVTPT",
        "NVTPTNUM",
        "NVTPTREF"
    ],
    "OE": [
        "STUDYID",
        "USUBJID",
        "OESEQ",
        "OEGRPID",
        "OELNKID",
        "OELNKGRP",
        "OEORRES",
        "OEORNRLO",
        "OEORNRHI",
        "OESTRESC",
        "OESTRESN",
        "OESTNRLO",
        "OESTNRHI",
        "OESTNRC",
        "OERESCAT",
        "OEREASND",
        "OEXFN",
        "OEREPNUM",
        "VISITNUM",
        "VISIT",
        "VISITDY",
        "TAETORD",
        "OEDY",
        "OETPT",
        "OETPTNUM",
        "OETPTREF"
    ],
    "OI": [
        "STUDYID",
        "NHOID",
        "OISEQ"
    ],
    "PC": [
        "STUDYID",
        "USUBJID",
        "PCSEQ",
        "PCGRPID",
        "PCREFID",
        "PCSPID",
        "PCTESTCD",
        "PCTEST",
        "PCORRES",
        "PCSTRESC",
        "PCSTRESN",
        "PCREASND",
        "PCNAM",
        "PCLLOQ",
        "PCULOQ",
        "VISITNUM",
        "VISIT",
        "VISITDY",
        "TAETORD",
        "PCDY",
        "PCENDY",
        "PCTPT",
        "PCTPTNUM",
        "PCTPTREF"
    ],
    "PE": [
        "STUDYID",
        "USUBJID",
        "PESEQ",
        "PEGRPID",
        "PESPID",
        "PEMODIFY",
        "PEBODSYS",
        "PEORRES",
        "PESTRESC",
        "PEREASND",
        "VISITNUM",
        "VISIT",
        "VISITDY",
        "TAETORD",
        "PEDY"
    ],
    "PP": [
        "STUDYID",
        "USUBJID",
        "PPSEQ",
        "PPGRPID",
        "PPORRES",
        "PPSTRESC",
        "PPSTRESN",
        "PPREASND",
        "TAETORD",
        "PPDY",
        "PPTPTREF"
    ],
    "PR": [
        "STUDYID",
        "USUBJID",
        "PRSEQ",
        "PRGRPID",
        "PRSPID",
        "PRLNKID",
        "PRLNKGRP",
        "PRTRT",
        "PRINDC",
        "PRDOSE",
        "PRDOSTXT",
        "PRDOSRGM",
        "VISITNUM",
        "VISIT",
        "VISITDY",
        "TAETORD",
        "PRSTDY",
        "PRENDY",
        "PRTPT",
        "PRTPTNUM",
        "PRTPTREF",
        "PRSTTPT",
        "PRENTPT"
    ],
    "QS": [
        "STUDYID",
        "USUBJID",
        "QSSEQ",
        "QSGRPID",
        "QSSPID",
        "QSORRES",
        "QSSTRESC",
        "QSSTRESN",
        "QSREASND",
        "VISITNUM",
        "VISIT",
        "VISITDY",
        "TAETORD",
        "QSDY",
        "QSTPT",
        "QSTPTNUM",
        "QSTPTREF",
        "QSEVINTX"
    ],
    "RE": [
        "STUDYID",
        "USUBJID",
        "SPDEVID",
        "RESEQ",
        "REGRPID",
        "REREFID",
        "RESPID",
        "RELNKID",
        "RELNKGRP",
        "RECAT",
        "RESCAT",
        "REORRES",
        "REORREF",
        "RESTRESC",
        "RESTRESN",
        "RESTREFC",
        "RESTREFN",
        "REREASND",
        "REREPNUM",
        "VISITNUM",
        "VISIT",
        "VISITDY",
        "TAETORD",
        "REDY",
        "RETPT",
        "RETPTNUM",
        "RETPTREF"
    ],
    "RELREC": [
        "STUDYID",
        "USUBJID",
        "IDVARVAL",
        "RELID"
    ],
    "RELSPEC": [
        "STUDYID",
        "USUBJID",
        "REFID",
        "PARENT",
        "LEVEL"
    ],
    "RELSUB": [
        "STUDYID",
        "USUBJID",
        "POOLID",
        "RSUBJID"
    ],
    "RP": [
        "STUDYID",
        "USUBJID",
        "RPSEQ",
        "RPGRPID",
        "RPREFID",
        "RPSPID",
        "RPLNKID",
        "RPLNKGRP",
        "RPCAT",
        "RPSCAT",
        "RPORRES",
        "RPSTRESC",
        "RPSTRESN",
        "RPREASND",
        "VISITNUM",
        "VISIT",
        "VISITDY",
        "TAETORD",
        "RPDY",
        "RPTPT",
        "RPTPTNUM",
        "RPTPTREF"
    ],
    "RS": [
        "STUDYID",
        "USUBJID",
        "RSSEQ",
        "RSGRPID",
        "RSREFID",
        "RSSPID",
        "RSLNKID",
        "RSLNKGRP",
        "RSSCAT",
        "RSORRES",
        "RSSTRESN",
        "RSREASND",
        "RSNAM",
        "VISITNUM",
        "VISIT",
        "VISITDY",
        "TAETORD",
        "RSDY",
        "RSTPT",
        "RSTPTNUM",
        "RSTPTREF",
        "RSEVINTX",
        "RSSTTPT",
        "RSENTPT"
    ],
    "SC": [
        "STUDYID",
        "USUBJID",
        "SCSEQ",
        "SCGRPID",
        "SCSPID",
        "SCORRES",
        "SCSTRESC",
        "SCSTRESN",
        "SCREASND",
        "VISITNUM",
        "VISIT",
        "VISITDY",
        "TAETORD",
        "SCDY"
    ],
    "SE": [
        "STUDYID",
        "USUBJID",
        "SESEQ",
        "TAETORD",
        "SESTDY",
        "SEENDY",
        "SEUPDES"
    ],
    "SM": [
        "STUDYID",
        "USUBJID",
        "SMSEQ",
        "SMSTDY",
        "SMENDY"
    ],
    "SR": [
        "STUDYID",
        "USUBJID",
        "SRSEQ",
        "SRGRPID",
        "SRREFID",
        "SRSPID",
        "SROBJ",
        "SRCAT",
        "SRSCAT",
        "SRORRES",
        "SRSTRESC",
        "SRSTRESN",
        "SRREASND",
        "SRNAM",
        "VISITNUM",
        "VISIT",
        "VISITDY",
        "TAETORD",
        "SRDY",
        "SRTPT",
        "SRTPTNUM",
        "SRTPTREF"
    ],
    "SS": [
        "STUDYID",
        "USUBJID",
        "SSSEQ",
        "SSGRPID",
        "SSSPID",
        "SSORRES",
        "SSREASND",
        "VISITNUM",
        "VISIT",
        "VISITDY",
        "TAETORD",
        "SSDY"
    ],
    "SU": [
        "STUDYID",
        "USUBJID",
        "SUSEQ",
        "SUGRPID",
        "SUSPID",
        "SUTRT",
        "SUMODIFY",
        "SUREASND",
        "SUDOSE",
        "SUDOSTXT",
        "SUDOSTOT",
        "TAETORD",
        "SUSTDY",
        "SUENDY",
        "SUSTTPT",
        "SUENTPT"
    ],
    "SUPP--": [
        "STUDYID",
        "USUBJID",
        "IDVARVAL",
        "QLABEL",
        "QVAL",
        "QORIG"
    ],
    "SV": [
        "STUDYID",
        "USUBJID",
        "VISITNUM",
        "VISIT",
        "SVREASOC",
        "VISITDY",
        "SVSTDY",
        "SVENDY",
        "SVUPDES"
    ],
    "TA": [
        "STUDYID",
        "TAETORD",
        "TABRANCH",
        "TATRANS"
    ],
    "TD": [
        "STUDYID",
        "TDORDER",
        "TDANCVAR",
        "TDNUMRPT"
    ],
    "TE": [
        "STUDYID",
        "TESTRL",
        "TEENRL"
    ],
    "TI": [
        "STUDYID",
        "TIRL",
        "TIVERS"
    ],
    "TM": [
        "STUDYID",
        "MIDSTYPE",
        "TMDEF"
    ],
    "TR": [
        "STUDYID",
        "USUBJID",
        "TRSEQ",
        "TRGRPID",
        "TRREFID",
        "TRSPID",
        "TRLNKID",
        "TRLNKGRP",
        "TRORRES",
        "TRSTRESN",
        "TRREASND",
        "TRNAM",
        "VISITNUM",
        "VISIT",
        "VISITDY",
        "TAETORD",
        "TRDY"
    ],
    "TS": [
        "STUDYID",
        "TSSEQ",
        "TSGRPID",
        "TSVCDREF",
        "TSVCDVER"
    ],
    "TU": [
        "STUDYID",
        "USUBJID",
        "TUSEQ",
        "TUGRPID",
        "TUREFID",
        "TUSPID",
        "TULNKID",
        "TULNKGRP",
        "TUORRES",
        "TUNAM",
        "VISITNUM",
        "VISIT",
        "VISITDY",
        "TAETORD",
        "TUDY"
    ],
    "TV": [
        "STUDYID",
        "VISITNUM",
        "VISIT",
        "VISITDY",
        "TVSTRL",
        "TVENRL"
    ],
    "UR": [
        "STUDYID",
        "USUBJID",
        "URSEQ",
        "URGRPID",
        "URREFID",
        "URSPID",
        "URLNKID",
        "URLNKGRP",
        "URORRES",
        "URSTRESC",
        "URSTRESN",
        "URRESCAT",
        "URREASND",
        "VISITNUM",
        "VISIT",
        "VISITDY",
        "TAETORD",
        "URDY",
        "URTPT",
        "URTPTNUM",
        "URTPTREF"
    ],
    "VS": [
        "STUDYID",
        "USUBJID",
        "VSSEQ",
        "VSGRPID",
        "VSSPID",
        "VSORRES",
        "VSSTRESC",
        "VSSTRESN",
        "VSREASND",
        "VISITNUM",
        "VISIT",
        "VISITDY",
        "TAETORD",
        "VSDY",
        "VSTPT",
        "VSTPTNUM",
        "VSTPTREF"
    ]
}