{
    "source_file": "SDTMIG Metadata.xlsx",
    "extraction_date": "2024-04-29 14:46:22",
    "version": "SDTMIG 3.4",
    "data": {
        "AE": {
            "STUDYID": {
                "Variable Label": "Study Identifier",
                "Type": "Char",
                "Controlled Terms, Codelist or Format": " ",
                "Core": "Req",
                "Order": 1.0
            },
            "DOMAIN": {
                "Variable Label": "Domain Abbreviation",
                "Type": "Char",
                "Controlled Terms, Codelist or Format": "AE ",
                "Core": "Req",
                "Order": 2.0
            },
            "USUBJID": {
                "Variable Label": "Unique Subject Identifier",
                "Type": "Char",
                "Controlled Terms, Codelist or Format": " ",
                "Core": "Req",
                "Order": 3.0
            },
            "SPDEVID": {
                "Variable Label": "Sponsor Device Identifier",
                "Type": "Char",
                "Controlled Terms, Codelist or Format": " ",
                "Core": "Perm",
                "Order": 4.0
            },
            "AESEQ": {
                "Variable Label": "Sequence Number",
                "Type": "Num",
                "Controlled Terms, Codelist or Format": " ",
                "Core": "Req",
                "Order": 5.0
            },
            "AEGRPID": {
                "Variable Label": "Group ID",
                "Type": "Char",
                "Controlled Terms, Codelist or Format": " ",
                "Core": "Perm",
                "Order": 6.0
            },
            "AEREFID": {
                "Variable Label": "Reference ID",
                "Type": "Char",
                "Controlled Terms, Codelist or Format": " ",
                "Core": "Perm",
                "Order": 7.0
            },
            "AESPID": {
                "Variable Label": "Sponsor-Defined Identifier",
                "Type": "Char",
                "Controlled Terms, Codelist or Format": " ",
                "Core": "Perm",
                "Order": 8.0
            },
            "AETERM": {
                "Variable Label": "Reported Term for the Adverse Event",
                "Type": "Char",
                "Controlled Terms, Codelist or Format": " ",
                "Core": "Req",
                "Order": 9.0
            },
            "AEMODIFY": {
                "Variable Label": "Modified Reported Term",
                "Type": "Char",
                "Controlled Terms, Codelist or Format": " ",
                "Core": "Perm",
                "Order": 10.0
            },
            "AELLT": {
                "Variable Label": "Lowest Level Term",
                "Type": "Char",
                "Controlled Terms, Codelist or Format": "MedDRA",
                "Core": "Exp",
                "Order": 11.0
            },
            "AELLTCD": {
                "Variable Label": "Lowest Level Term Code",
                "Type": "Num",
                "Controlled Terms, Codelist or Format": "MedDRA",
                "Core": "Exp",
                "Order": 12.0
            },
            "AEDECOD": {
                "Variable Label": "Dictionary-Derived Term",
                "Type": "Char",
                "Controlled Terms, Codelist or Format": "MedDRA",
                "Core": "Req",
                "Order": 13.0
            },
            "AEPTCD": {
                "Variable Label": "Preferred Term Code",
                "Type": "Num",
                "Controlled Terms, Codelist or Format": "MedDRA",
                "Core": "Exp",
                "Order": 14.0
            },
            "AEHLT": {
                "Variable Label": "High Level Term",
                "Type": "Char",
                "Controlled Terms, Codelist or Format": "MedDRA",
                "Core": "Exp",
                "Order": 15.0
            },
            "AEHLTCD": {
                "Variable Label": "High Level Term Code",
                "Type": "Num",
                "Controlled Terms, Codelist or Format": "MedDRA",
                "Core": "Exp",
                "Order": 16.0
            },
            "AEHLGT": {
                "Variable Label": "High Level Group Term",
                "Type": "Char",
                "Controlled Terms, Codelist or Format": "MedDRA",
                "Core": "Exp",
                "Order": 17.0
            },
            "AEHLGTCD": {
                "Variable Label": "High Level Group Term Code",
                "Type": "Num",
                "Controlled Terms, Codelist or Format": "MedDRA",
                "Core": "Exp",
                "Order": 18.0
            },
            "AECAT": {
                "Variable Label": "Category for Adverse Event",
                "Type": "Char",
                "Controlled Terms, Codelist or Format": "*",
                "Core": "Perm",
                "Order": 19.0
            },
            "AESCAT": {
                "Variable Label": "Subcategory for Adverse Event",
                "Type": "Char",
                "Controlled Terms, Codelist or Format": "*",
                "Core": "Perm",
                "Order": 20.0
            },
            "AEPRESP": {
                "Variable Label": "Pre-Specified Adverse Event",
                "Type": "Char",
                "Controlled Terms, Codelist or Format": "(NY) ",
                "Core": "Perm",
                "Order": 21.0
            },
            "AEBODSYS": {
                "Variable Label": "Body System or Organ Class",
                "Type": "Char",
                "Controlled Terms, Codelist or Format": "*",
                "Core": "Exp",
                "Order": 22.0
            },
            "AEBDSYCD": {
                "Variable Label": "Body System or Organ Class Code",
                "Type": "Num",
                "Controlled Terms, Codelist or Format": "MedDRA",
                "Core": "Exp",
                "Order": 23.0
            },
            "AESOC": {
                "Variable Label": "Primary System Organ Class",
                "Type": "Char",
                "Controlled Terms, Codelist or Format": "MedDRA",
                "Core": "Exp",
                "Order": 24.0
            },
            "AESOCCD": {
                "Variable Label": "Primary System Organ Class Code",
                "Type": "Num",
                "Controlled Terms, Codelist or Format": "MedDRA",
                "Core": "Exp",
                "Order": 25.0
            },
            "AELOC": {
                "Variable Label": "Location of Event",
                "Type": "Char",
                "Controlled Terms, Codelist or Format": "(LOC) ",
                "Core": "Perm",
                "Order": 26.0
            },
            "AESEV": {
                "Variable Label": "Severity/Intensity",
                "Type": "Char",
                "Controlled Terms, Codelist or Format": "(AESEV) ",
                "Core": "Perm",
                "Order": 27.0
            },
            "AESER": {
                "Variable Label": "Serious Event",
                "Type": "Char",
                "Controlled Terms, Codelist or Format": "(NY) ",
                "Core": "Exp",
                "Order": 28.0
            },
            "AEACN": {
                "Variable Label": "Action Taken with Study Treatment",
                "Type": "Char",
                "Controlled Terms, Codelist or Format": "(ACN) ",
                "Core": "Exp",
                "Order": 29.0
            },
            "AEACNOTH": {
                "Variable Label": "Other Action Taken",
                "Type": "Char",
                "Controlled Terms, Codelist or Format": " ",
                "Core": "Perm",
                "Order": 30.0
            },
            "AEACNDEV": {
                "Variable Label": "Action Taken with Device",
                "Type": "Char",
                "Controlled Terms, Codelist or Format": "(DEACNDEV) ",
                "Core": "Perm",
                "Order": 31.0
            },
            "AEREL": {
                "Variable Label": "Causality",
                "Type": "Char",
                "Controlled Terms, Codelist or Format": "*",
                "Core": "Exp",
                "Order": 32.0
            },
            "AERLDEV": {
                "Variable Label": "Relationship of Event to Device",
                "Type": "Char",
                "Controlled Terms, Codelist or Format": "*",
                "Core": "Perm",
                "Order": 33.0
            },
            "AERELNST": {
                "Variable Label": "Relationship to Non- Study Treatment",
                "Type": "Char",
                "Controlled Terms, Codelist or Format": " ",
                "Core": "Perm",
                "Order": 34.0
            },
            "AEPATT": {
                "Variable Label": "Pattern of Adverse Event",
                "Type": "Char",
                "Controlled Terms, Codelist or Format": "*",
                "Core": "Perm",
                "Order": 35.0
            },
            "AEOUT": {
                "Variable Label": "Outcome of Adverse Event",
                "Type": "Char",
                "Controlled Terms, Codelist or Format": "(OUT) ",
                "Core": "Perm",
                "Order": 36.0
            },
            "AESCAN": {
                "Variable Label": "Involves Cancer",
                "Type": "Char",
                "Controlled Terms, Codelist or Format": "(NY) ",
                "Core": "Perm",
                "Order": 37.0
            },
            "AESCONG": {
                "Variable Label": "Congenital Anomaly or Birth Defect",
                "Type": "Char",
                "Controlled Terms, Codelist or Format": "(NY) ",
                "Core": "Perm",
                "Order": 38.0
            },
            "AESDISAB": {
                "Variable Label": "Persist or Signif Disability/Incapacity",
                "Type": "Char",
                "Controlled Terms, Codelist or Format": "(NY) ",
                "Core": "Perm",
                "Order": 39.0
            },
            "AESDTH": {
                "Variable Label": "Results in Death",
                "Type": "Char",
                "Controlled Terms, Codelist or Format": "(NY) ",
                "Core": "Perm",
                "Order": 40.0
            },
            "AESHOSP": {
                "Variable Label": "Requires or Prolongs Hospitalization",
                "Type": "Char",
                "Controlled Terms, Codelist or Format": "(NY) ",
                "Core": "Perm",
                "Order": 41.0
            },
            "AESLIFE": {
                "Variable Label": "Is Life Threatening",
                "Type": "Char",
                "Controlled Terms, Codelist or Format": "(NY) ",
                "Core": "Perm",
                "Order": 42.0
            },
            "AESOD": {
                "Variable Label": "Occurred with Overdose",
                "Type": "Char",
                "Controlled Terms, Codelist or Format": "(NY) ",
                "Core": "Perm",
                "Order": 43.0
            },
            "AESMIE": {
                "Variable Label": "Other Medically Important Serious Event",
                "Type": "Char",
                "Controlled Terms, Codelist or Format": "(NY) ",
                "Core": "Perm",
                "Order": 44.0
            },
            "AESINTV": {
                "Variable Label": "Needs Intervention to Prevent Impairment",
                "Type": "Char",
                "Controlled Terms, Codelist or Format": "(NY) ",
                "Core": "Perm",
                "Order": 45.0
            },
            "AEUNANT": {
                "Variable Label": "Unanticipated Adverse Device Effect",
                "Type": "Char",
                "Controlled Terms, Codelist or Format": "(NY) ",
                "Core": "Perm",
                "Order": 46.0
            },
            "AERLPRT": {
                "Variable Label": "Rel of AE to Non-Dev- Rel Study Activity",
                "Type": "Char",
                "Controlled Terms, Codelist or Format": "*",
                "Core": "Perm",
                "Order": 47.0
            },
            "AERLPRC": {
                "Variable Label": "Rel of AE to Device- Related Procedure",
                "Type": "Char",
                "Controlled Terms, Codelist or Format": "*",
                "Core": "Perm",
                "Order": 48.0
            },
            "AECONTRT": {
                "Variable Label": "Concomitant or Additional Trtmnt Given",
                "Type": "Char",
                "Controlled Terms, Codelist or Format": "(NY) ",
                "Core": "Perm",
                "Order": 49.0
            },
            "AETOXGR": {
                "Variable Label": "Standard Toxicity Grade",
                "Type": "Char",
                "Controlled Terms, Codelist or Format": "*",
                "Core": "Perm",
                "Order": 50.0
            },
            "TAETORD": {
                "Variable Label": "Planned Order of Element within Arm",
                "Type": "Num",
                "Controlled Terms, Codelist or Format": " ",
                "Core": "Perm",
                "Order": 51.0
            },
            "EPOCH": {
                "Variable Label": "Epoch",
                "Type": "Char",
                "Controlled Terms, Codelist or Format": "(EPOCH) ",
                "Core": "Perm",
                "Order": 52.0
            },
            "AESTDTC": {
                "Variable Label": "Start Date/Time of Adverse Event",
                "Type": "Char",
                "Controlled Terms, Codelist or Format": "ISO 8601 datetime or interval",
                "Core": "Exp",
                "Order": 53.0
            },
            "AEENDTC": {
                "Variable Label": "End Date/Time of Adverse Event",
                "Type": "Char",
                "Controlled Terms, Codelist or Format": "ISO 8601 datetime or interval",
                "Core": "Exp",
                "Order": 54.0
            },
            "AESTDY": {
                "Variable Label": "Study Day of Start of Adverse Event",
                "Type": "Num",
                "Controlled Terms, Codelist or Format": " ",
                "Core": "Perm",
                "Order": 55.0
            },
            "AEENDY": {
                "Variable Label": "Study Day of End of Adverse Event",
                "Type": "Num",
                "Controlled Terms, Codelist or Format": " ",
                "Core": "Perm",
                "Order": 56.0
            },
            "AEDUR": {
                "Variable Label": "Duration of Adverse Event",
                "Type": "Char",
                "Controlled Terms, Codelist or Format": "ISO 8601 duration",
                "Core": "Perm",
                "Order": 57.0
            },
            "AEENRF": {
                "Variable Label": "End Relative to Reference Period",
                "Type": "Char",
                "Controlled Terms, Codelist or Format": "(STENRF) ",
                "Core": "Perm",
                "Order": 58.0
            },
            "AEENRTPT": {
                "Variable Label": "End Relative to Reference Time Point",
                "Type": "Char",
                "Controlled Terms, Codelist or Format": "(STENRF) ",
                "Core": "Perm",
                "Order": 59.0
            },
            "AEENTPT": {
                "Variable Label": "End Reference Time Point",
                "Type": "Char",
                "Controlled Terms, Codelist or Format": " ",
                "Core": "Perm",
                "Order": 60.0
            }
        },
        "AG": {
            "STUDYID": {
                "Variable Label": "Study Identifier",
                "Type": "Char",
                "Controlled Terms, Codelist or Format": " ",
                "Core": "Req",
                "Order": 1.0
            },
            "DOMAIN": {
                "Variable Label": "Domain Abbreviation",
                "Type": "Char",
                "Controlled Terms, Codelist or Format": "AG ",
                "Core": "Req",
                "Order": 2.0
            },
            "USUBJID": {
                "Variable Label": "Unique Subject Identifier",
                "Type": "Char",
                "Controlled Terms, Codelist or Format": " ",
                "Core": "Req",
                "Order": 3.0
            },
            "AGSEQ": {
                "Variable Label": "Sequence Number",
                "Type": "Num",
                "Controlled Terms, Codelist or Format": " ",
                "Core": "Req",
                "Order": 4.0
            },
            "AGGRPID": {
                "Variable Label": "Group ID",
                "Type": "Char",
                "Controlled Terms, Codelist or Format": " ",
                "Core": "Perm",
                "Order": 5.0
            },
            "AGSPID": {
                "Variable Label": "Sponsor-Defined Identifier",
                "Type": "Char",
                "Controlled Terms, Codelist or Format": " ",
                "Core": "Perm",
                "Order": 6.0
            },
            "AGLNKID": {
                "Variable Label": "Link ID",
                "Type": "Char",
                "Controlled Terms, Codelist or Format": " ",
                "Core": "Perm",
                "Order": 7.0
            },
            "AGLNKGRP": {
                "Variable Label": "Link Group ID",
                "Type": "Char",
                "Controlled Terms, Codelist or Format": " ",
                "Core": "Perm",
                "Order": 8.0
            },
            "AGTRT": {
                "Variable Label": "Reported Agent Name",
                "Type": "Char",
                "Controlled Terms, Codelist or Format": " ",
                "Core": "Req",
                "Order": 9.0
            },
            "AGMODIFY": {
                "Variable Label": "Modified Reported Name",
                "Type": "Char",
                "Controlled Terms, Codelist or Format": " ",
                "Core": "Perm",
                "Order": 10.0
            },
            "AGDECOD": {
                "Variable Label": "Standardized Agent Name",
                "Type": "Char",
                "Controlled Terms, Codelist or Format": "*",
                "Core": "Perm",
                "Order": 11.0
            },
            "AGCAT": {
                "Variable Label": "Category for Agent",
                "Type": "Char",
                "Controlled Terms, Codelist or Format": "*",
                "Core": "Perm",
                "Order": 12.0
            },
            "AGSCAT": {
                "Variable Label": "Subcategory for Agent",
                "Type": "Char",
                "Controlled Terms, Codelist or Format": "*",
                "Core": "Perm",
                "Order": 13.0
            },
            "AGPRESP": {
                "Variable Label": "AG Pre-Specified",
                "Type": "Char",
                "Controlled Terms, Codelist or Format": "(NY) ",
                "Core": "Perm",
                "Order": 14.0
            },
            "AGOCCUR": {
                "Variable Label": "AG Occurrence",
                "Type": "Char",
                "Controlled Terms, Codelist or Format": "(NY) ",
                "Core": "Perm",
                "Order": 15.0
            },
            "AGSTAT": {
                "Variable Label": "Completion Status",
                "Type": "Char",
                "Controlled Terms, Codelist or Format": "(ND) ",
                "Core": "Perm",
                "Order": 16.0
            },
            "AGREASND": {
                "Variable Label": "Reason Procedure Agent Not Collected",
                "Type": "Char",
                "Controlled Terms, Codelist or Format": " ",
                "Core": "Perm",
                "Order": 17.0
            },
            "AGCLAS": {
                "Variable Label": "Agent Class",
                "Type": "Char",
                "Controlled Terms, Codelist or Format": "*",
                "Core": "Perm",
                "Order": 18.0
            },
            "AGCLASCD": {
                "Variable Label": "Agent Class Code",
                "Type": "Char",
                "Controlled Terms, Codelist or Format": "*",
                "Core": "Perm",
                "Order": 19.0
            },
            "AGDOSE": {
                "Variable Label": "Dose per Administration",
                "Type": "Num",
                "Controlled Terms, Codelist or Format": " ",
                "Core": "Perm",
                "Order": 20.0
            },
            "AGDOSTXT": {
                "Variable Label": "Dose Description",
                "Type": "Char",
                "Controlled Terms, Codelist or Format": " ",
                "Core": "Perm",
                "Order": 21.0
            },
            "AGDOSU": {
                "Variable Label": "Dose Units",
                "Type": "Char",
                "Controlled Terms, Codelist or Format": "(UNIT) ",
                "Core": "Perm",
                "Order": 22.0
            },
            "AGDOSFRM": {
                "Variable Label": "Dose Form",
                "Type": "Char",
                "Controlled Terms, Codelist or Format": "(FRM) ",
                "Core": "Perm",
                "Order": 23.0
            },
            "AGDOSFRQ": {
                "Variable Label": "Dosing Frequency per Interval",
                "Type": "Char",
                "Controlled Terms, Codelist or Format": "(FREQ) ",
                "Core": "Perm",
                "Order": 24.0
            },
            "AGROUTE": {
                "Variable Label": "Route of Administration",
                "Type": "Char",
                "Controlled Terms, Codelist or Format": "(ROUTE) ",
                "Core": "Perm",
                "Order": 25.0
            },
            "VISITNUM": {
                "Variable Label": "Visit Number",
                "Type": "Num",
                "Controlled Terms, Codelist or Format": " ",
                "Core": "Exp",
                "Order": 26.0
            },
            "VISIT": {
                "Variable Label": "Visit Name",
                "Type": "Char",
                "Controlled Terms, Codelist or Format": " ",
                "Core": "Perm",
                "Order": 27.0
            },
            "VISITDY": {
                "Variable Label": "Planned Study Day of Visit",
                "Type": "Num",
                "Controlled Terms, Codelist or Format": " ",
                "Core": "Perm",
                "Order": 28.0
            },
            "TAETORD": {
                "Variable Label": "Planned Order of Element within Arm",
                "Type": "Num",
                "Controlled Terms, Codelist or Format": " ",
                "Core": "Perm",
                "Order": 29.0
            },
            "EPOCH": {
                "Variable Label": "Epoch",
                "Type": "Char",
                "Controlled Terms, Codelist or Format": "(EPOCH) ",
                "Core": "Perm",
                "Order": 30.0
            },
            "AGSTDTC": {
                "Variable Label": "Start Date/Time of Agent",
                "Type": "Char",
                "Controlled Terms, Codelist or Format": "ISO 8601 datetime or interval",
                "Core": "Perm",
                "Order": 31.0
            },
            "AGENDTC": {
                "Variable Label": "End Date/Time of Agent",
                "Type": "Char",
                "Controlled Terms, Codelist or Format": "ISO 8601 datetime or interval",
                "Core": "Perm",
                "Order": 32.0
            },
            "AGSTDY": {
                "Variable Label": "Study Day of Start of Agent",
                "Type": "Num",
                "Controlled Terms, Codelist or Format": " ",
                "Core": "Perm",
                "Order": 33.0
            },
            "AGENDY": {
                "Variable Label": "Study Day of End of Agent",
                "Type": "Num",
                "Controlled Terms, Codelist or Format": " ",
                "Core": "Perm",
                "Order": 34.0
            },
            "AGDUR": {
                "Variable Label": "Duration of Agent",
                "Type": "Char",
                "Controlled Terms, Codelist or Format": "ISO 8601 duration",
                "Core": "Perm",
                "Order": 35.0
            },
            "AGSTRF": {
                "Variable Label": "Start Relative to Reference Period",
                "Type": "Char",
                "Controlled Terms, Codelist or Format": "(STENRF) ",
                "Core": "Perm",
                "Order": 36.0
            },
            "AGENRF": {
                "Variable Label": "End Relative to Reference Period",
                "Type": "Char",
                "Controlled Terms, Codelist or Format": "(STENRF) ",
                "Core": "Perm",
                "Order": 37.0
            },
            "AGSTRTPT": {
                "Variable Label": "Start Relative to Reference Time Point",
                "Type": "Char",
                "Controlled Terms, Codelist or Format": "(STENRF) ",
                "Core": "Perm",
                "Order": 38.0
            },
            "AGSTTPT": {
                "Variable Label": "Start Reference Time Point",
                "Type": "Char",
                "Controlled Terms, Codelist or Format": " ",
                "Core": "Perm",
                "Order": 39.0
            },
            "AGENRTPT": {
                "Variable Label": "End Relative to Reference Time Point",
                "Type": "Char",
                "Controlled Terms, Codelist or Format": "(STENRF) ",
                "Core": "Perm",
                "Order": 40.0
            },
            "AGENTPT": {
                "Variable Label": "End Reference Time Point",
                "Type": "Char",
                "Controlled Terms, Codelist or Format": " ",
                "Core": "Perm",
                "Order": 41.0
            }
        },
        "BE": {
            "STUDYID": {
                "Variable Label": "Study Identifier",
                "Type": "Char",
                "Controlled Terms, Codelist or Format": " ",
                "Core": "Req",
                "Order": 1.0
            },
            "DOMAIN": {
                "Variable Label": "Domain Abbreviation",
                "Type": "Char",
                "Controlled Terms, Codelist or Format": "BE ",
                "Core": "Req",
                "Order": 2.0
            },
            "USUBJID": {
                "Variable Label": "Unique Subject Identifier",
                "Type": "Char",
                "Controlled Terms, Codelist or Format": " ",
                "Core": "Req",
                "Order": 3.0
            },
            "SPDEVID": {
                "Variable Label": "Sponsor Device Identifier",
                "Type": "Char",
                "Controlled Terms, Codelist or Format": " ",
                "Core": "Perm",
                "Order": 4.0
            },
            "BESEQ": {
                "Variable Label": "Sequence Number",
                "Type": "Num",
                "Controlled Terms, Codelist or Format": " ",
                "Core": "Req",
                "Order": 5.0
            },
            "BEGRPID": {
                "Variable Label": "Group ID",
                "Type": "Char",
                "Controlled Terms, Codelist or Format": " ",
                "Core": "Perm",
                "Order": 6.0
            },
            "BEREFID": {
                "Variable Label": "Reference ID",
                "Type": "Char",
                "Controlled Terms, Codelist or Format": " ",
                "Core": "Exp",
                "Order": 7.0
            },
            "BESPID": {
                "Variable Label": "Sponsor-Defined Identifier",
                "Type": "Char",
                "Controlled Terms, Codelist or Format": " ",
                "Core": "Perm",
                "Order": 8.0
            },
            "BETERM": {
                "Variable Label": "Reported Term for the Biospecimen Event",
                "Type": "Char",
                "Controlled Terms, Codelist or Format": " ",
                "Core": "Req",
                "Order": 9.0
            },
            "BEMODIFY": {
                "Variable Label": "Modified Reported Term",
                "Type": "Char",
                "Controlled Terms, Codelist or Format": " ",
                "Core": "Perm",
                "Order": 10.0
            },
            "BEDECOD": {
                "Variable Label": "Dictionary-Derived Term",
                "Type": "Char",
                "Controlled Terms, Codelist or Format": "(BEDECOD) ",
                "Core": "Perm",
                "Order": 11.0
            },
            "BECAT": {
                "Variable Label": "Category for Biospecimen Event",
                "Type": "Char",
                "Controlled Terms, Codelist or Format": " ",
                "Core": "Perm",
                "Order": 12.0
            },
            "BESCAT": {
                "Variable Label": "Subcategory for Biospecimen Event",
                "Type": "Char",
                "Controlled Terms, Codelist or Format": " ",
                "Core": "Perm",
                "Order": 13.0
            },
            "BELOC": {
                "Variable Label": "Anatomical Location of Event",
                "Type": "Char",
                "Controlled Terms, Codelist or Format": "(LOC) ",
                "Core": "Perm",
                "Order": 14.0
            },
            "BEPARTY": {
                "Variable Label": "Accountable Party",
                "Type": "Char",
                "Controlled Terms, Codelist or Format": "*",
                "Core": "Perm",
                "Order": 15.0
            },
            "BEPRTYID": {
                "Variable Label": "Identification of Accountable Party",
                "Type": "Char",
                "Controlled Terms, Codelist or Format": " ",
                "Core": "Perm",
                "Order": 16.0
            },
            "VISITNUM": {
                "Variable Label": "Visit Number",
                "Type": "Num",
                "Controlled Terms, Codelist or Format": " ",
                "Core": "Exp",
                "Order": 17.0
            },
            "VISIT": {
                "Variable Label": "Visit Name",
                "Type": "Char",
                "Controlled Terms, Codelist or Format": " ",
                "Core": "Perm",
                "Order": 18.0
            },
            "VISITDY": {
                "Variable Label": "Planned Study Day of Visit",
                "Type": "Num",
                "Controlled Terms, Codelist or Format": " ",
                "Core": "Perm",
                "Order": 19.0
            },
            "BEDTC": {
                "Variable Label": "Date/Time of Specimen Collection",
                "Type": "Char",
                "Controlled Terms, Codelist or Format": "ISO 8601 datetime or interval",
                "Core": "Exp",
                "Order": 20.0
            },
            "BESTDTC": {
                "Variable Label": "Start Date/Time of Biospecimen Event",
                "Type": "Char",
                "Controlled Terms, Codelist or Format": "ISO 8601 datetime or interval",
                "Core": "Exp",
                "Order": 21.0
            },
            "BEENDTC": {
                "Variable Label": "End Date/Time of Biospecimen Event",
                "Type": "Char",
                "Controlled Terms, Codelist or Format": "ISO 8601 datetime or interval",
                "Core": "Exp",
                "Order": 22.0
            },
            "BESTDY": {
                "Variable Label": "Study Day of Start of Biospecimen Event",
                "Type": "Num",
                "Controlled Terms, Codelist or Format": " ",
                "Core": "Perm",
                "Order": 23.0
            },
            "BEENDY": {
                "Variable Label": "Study Day of End of Biospecimen Event",
                "Type": "Num",
                "Controlled Terms, Codelist or Format": " ",
                "Core": "Perm",
                "Order": 24.0
            },
            "BEDUR": {
                "Variable Label": "Duration of Biospecimen Event",
                "Type": "Char",
                "Controlled Terms, Codelist or Format": "ISO 8601 duration",
                "Core": "Perm",
                "Order": 25.0
            }
        },
        "BS": {
            "STUDYID": {
                "Variable Label": "Study Identifier",
                "Type": "Char",
                "Controlled Terms, Codelist or Format": " ",
                "Core": "Req",
                "Order": 1.0
            },
            "DOMAIN": {
                "Variable Label": "Domain Abbreviation",
                "Type": "Char",
                "Controlled Terms, Codelist or Format": "BS ",
                "Core": "Req",
                "Order": 2.0
            },
            "USUBJID": {
                "Variable Label": "Unique Subject Identifier",
                "Type": "Char",
                "Controlled Terms, Codelist or Format": " ",
                "Core": "Req",
                "Order": 3.0
            },
            "SPDEVID": {
                "Variable Label": "Sponsor Device Identifier",
                "Type": "Char",
                "Controlled Terms, Codelist or Format": " ",
                "Core": "Perm",
                "Order": 4.0
            },
            "BSSEQ": {
                "Variable Label": "Sequence Number",
                "Type": "Num",
                "Controlled Terms, Codelist or Format": " ",
                "Core": "Req",
                "Order": 5.0
            },
            "BSGRPID": {
                "Variable Label": "Group ID",
                "Type": "Char",
                "Controlled Terms, Codelist or Format": " ",
                "Core": "Perm",
                "Order": 6.0
            },
            "BSREFID": {
                "Variable Label": "Reference ID",
                "Type": "Char",
                "Controlled Terms, Codelist or Format": " ",
                "Core": "Exp",
                "Order": 7.0
            },
            "BSSPID": {
                "Variable Label": "Sponsor-Defined Identifier",
                "Type": "Char",
                "Controlled Terms, Codelist or Format": " ",
                "Core": "Perm",
                "Order": 8.0
            },
            "BSTESTCD": {
                "Variable Label": "Biospecimen Test Short Name",
                "Type": "Char",
                "Controlled Terms, Codelist or Format": "(BSTESTCD) ",
                "Core": "Req",
                "Order": 9.0
            },
            "BSTEST": {
                "Variable Label": "Biospecimen Test Name",
                "Type": "Char",
                "Controlled Terms, Codelist or Format": "(BSTEST) ",
                "Core": "Req",
                "Order": 10.0
            },
            "BSCAT": {
                "Variable Label": "Category for Biospecimen Test",
                "Type": "Char",
                "Controlled Terms, Codelist or Format": " ",
                "Core": "Exp",
                "Order": 11.0
            },
            "BSSCAT": {
                "Variable Label": "Subcategory for Biospecimen Test",
                "Type": "Char",
                "Controlled Terms, Codelist or Format": " ",
                "Core": "Perm",
                "Order": 12.0
            },
            "BSORRES": {
                "Variable Label": "Result or Finding in Original Units",
                "Type": "Char",
                "Controlled Terms, Codelist or Format": " ",
                "Core": "Exp",
                "Order": 13.0
            },
            "BSORRESU": {
                "Variable Label": "Original Units",
                "Type": "Char",
                "Controlled Terms, Codelist or Format": "(UNIT) ",
                "Core": "Exp",
                "Order": 14.0
            },
            "BSSTRESC": {
                "Variable Label": "Character Result/Finding in Std Format",
                "Type": "Char",
                "Controlled Terms, Codelist or Format": " ",
                "Core": "Exp",
                "Order": 15.0
            },
            "BSSTRESN": {
                "Variable Label": "Numeric Result/Finding in Standard Units",
                "Type": "Num",
                "Controlled Terms, Codelist or Format": " ",
                "Core": "Exp",
                "Order": 16.0
            },
            "BSSTRESU": {
                "Variable Label": "Standard Units",
                "Type": "Char",
                "Controlled Terms, Codelist or Format": "(UNIT) ",
                "Core": "Exp",
                "Order": 17.0
            },
            "BSSTAT": {
                "Variable Label": "Completion Status",
                "Type": "Char",
                "Controlled Terms, Codelist or Format": "(ND) ",
                "Core": "Perm",
                "Order": 18.0
            },
            "BSREASND": {
                "Variable Label": "Reason Test Not",
                "Type": "Char",
                "Controlled Terms, Codelist or Format": " ",
                "Core": "Perm",
                "Order": 19.0
            },
            "BSNAM": {
                "Variable Label": "Vendor Name",
                "Type": "Char",
                "Controlled Terms, Codelist or Format": " ",
                "Core": "Perm",
                "Order": 20.0
            },
            "BSSPEC": {
                "Variable Label": "Specimen Type",
                "Type": "Char",
                "Controlled Terms, Codelist or Format": "(SPECTYPE)(GENSMP) ",
                "Core": "Perm",
                "Order": 21.0
            },
            "BSANTREG": {
                "Variable Label": "Anatomical Region of Specimen",
                "Type": "Char",
                "Controlled Terms, Codelist or Format": "*",
                "Core": "Perm",
                "Order": 22.0
            },
            "BSSPCCND": {
                "Variable Label": "Specimen Condition",
                "Type": "Char",
                "Controlled Terms, Codelist or Format": "(SPECCOND) ",
                "Core": "Perm",
                "Order": 23.0
            },
            "BSMETHOD": {
                "Variable Label": "Method of Test or Examination",
                "Type": "Char",
                "Controlled Terms, Codelist or Format": "(METHOD) ",
                "Core": "Perm",
                "Order": 24.0
            },
            "BSBLFL": {
                "Variable Label": "Baseline Flag",
                "Type": "Char",
                "Controlled Terms, Codelist or Format": "(NY) ",
                "Core": "Perm",
                "Order": 25.0
            },
            "VISITNUM": {
                "Variable Label": "Visit Number",
                "Type": "Num",
                "Controlled Terms, Codelist or Format": " ",
                "Core": "Exp",
                "Order": 26.0
            },
            "VISIT": {
                "Variable Label": "Visit Name",
                "Type": "Char",
                "Controlled Terms, Codelist or Format": " ",
                "Core": "Perm",
                "Order": 27.0
            },
            "VISITDY": {
                "Variable Label": "Planned Study Day of Visit",
                "Type": "Num",
                "Controlled Terms, Codelist or Format": " ",
                "Core": "Perm",
                "Order": 28.0
            },
            "BSDTC": {
                "Variable Label": "Date/Time of Specimen Collection",
                "Type": "Char",
                "Controlled Terms, Codelist or Format": "ISO 8601 datetime or interval",
                "Core": "Exp",
                "Order": 29.0
            },
            "BSDY": {
                "Variable Label": "Study Day of Specimen Collection",
                "Type": "Num",
                "Controlled Terms, Codelist or Format": " ",
                "Core": "Perm",
                "Order": 30.0
            },
            "BSTPT": {
                "Variable Label": "Planned Time Point Name",
                "Type": "Char",
                "Controlled Terms, Codelist or Format": " ",
                "Core": "Perm",
                "Order": 31.0
            },
            "BSTPTNUM": {
                "Variable Label": "Planned Time Point Number",
                "Type": "Num",
                "Controlled Terms, Codelist or Format": " ",
                "Core": "Perm",
                "Order": 32.0
            },
            "BSELTM": {
                "Variable Label": "Planned Elapsed Time from Time Point Ref",
                "Type": "Char",
                "Controlled Terms, Codelist or Format": "ISO 8601 duration",
                "Core": "Perm",
                "Order": 33.0
            },
            "BSTPTREF": {
                "Variable Label": "Time Point Reference",
                "Type": "Char",
                "Controlled Terms, Codelist or Format": " ",
                "Core": "Perm",
                "Order": 34.0
            },
            "BSRFTDTC": {
                "Variable Label": "Date/Time of Reference Time Point",
                "Type": "Char",
                "Controlled Terms, Codelist or Format": "ISO 8601 datetime or interval",
                "Core": "Perm",
                "Order": 35.0
            }
        },
        "CE": {
            "STUDYID": {
                "Variable Label": "Study Identifier",
                "Type": "Char",
                "Controlled Terms, Codelist or Format": " ",
                "Core": "Req",
                "Order": 1.0
            },
            "DOMAIN": {
                "Variable Label": "Domain Abbreviation",
                "Type": "Char",
                "Controlled Terms, Codelist or Format": "CE ",
                "Core": "Req",
                "Order": 2.0
            },
            "USUBJID": {
                "Variable Label": "Unique Subject Identifier",
                "Type": "Char",
                "Controlled Terms, Codelist or Format": " ",
                "Core": "Req",
                "Order": 3.0
            },
            "CESEQ": {
                "Variable Label": "Sequence Number",
                "Type": "Num",
                "Controlled Terms, Codelist or Format": " ",
                "Core": "Req",
                "Order": 4.0
            },
            "CEGRPID": {
                "Variable Label": "Group ID",
                "Type": "Char",
                "Controlled Terms, Codelist or Format": " ",
                "Core": "Perm",
                "Order": 5.0
            },
            "CEREFID": {
                "Variable Label": "Reference ID",
                "Type": "Char",
                "Controlled Terms, Codelist or Format": " ",
                "Core": "Perm",
                "Order": 6.0
            },
            "CESPID": {
                "Variable Label": "Sponsor-Defined Identifier",
                "Type": "Char",
                "Controlled Terms, Codelist or Format": " ",
                "Core": "Perm",
                "Order": 7.0
            },
            "CETERM": {
                "Variable Label": "Reported Term for the Clinical Event",
                "Type": "Char",
                "Controlled Terms, Codelist or Format": " ",
                "Core": "Req",
                "Order": 8.0
            },
            "CEDECOD": {
                "Variable Label": "Dictionary-Derived Term",
                "Type": "Char",
                "Controlled Terms, Codelist or Format": "*",
                "Core": "Perm",
                "Order": 9.0
            },
            "CECAT": {
                "Variable Label": "Category for the Clinical Event",
                "Type": "Char",
                "Controlled Terms, Codelist or Format": "*",
                "Core": "Perm",
                "Order": 10.0
            },
            "CESCAT": {
                "Variable Label": "Subcategory for the Clinical Event",
                "Type": "Char",
                "Controlled Terms, Codelist or Format": "*",
                "Core": "Perm",
                "Order": 11.0
            },
            "CEPRESP": {
                "Variable Label": "Clinical Event Pre- specified",
                "Type": "Char",
                "Controlled Terms, Codelist or Format": "(NY) ",
                "Core": "Perm",
                "Order": 12.0
            },
            "CEOCCUR": {
                "Variable Label": "Clinical Event Occurrence",
                "Type": "Char",
                "Controlled Terms, Codelist or Format": "(NY) ",
                "Core": "Perm",
                "Order": 13.0
            },
            "CESTAT": {
                "Variable Label": "Completion Status",
                "Type": "Char",
                "Controlled Terms, Codelist or Format": "(ND) ",
                "Core": "Perm",
                "Order": 14.0
            },
            "CEREASND": {
                "Variable Label": "Reason Clinical Event Not Collected",
                "Type": "Char",
                "Controlled Terms, Codelist or Format": " ",
                "Core": "Perm",
                "Order": 15.0
            },
            "CEBODSYS": {
                "Variable Label": "Body System or Organ Class",
                "Type": "Char",
                "Controlled Terms, Codelist or Format": "*",
                "Core": "Perm",
                "Order": 16.0
            },
            "CESEV": {
                "Variable Label": "Severity/Intensity",
                "Type": "Char",
                "Controlled Terms, Codelist or Format": "(SEVRS) ",
                "Core": "Perm",
                "Order": 17.0
            },
            "CETOXGR": {
                "Variable Label": "Standard Toxicity",
                "Type": "Char",
                "Controlled Terms, Codelist or Format": "*",
                "Core": "Perm",
                "Order": 18.0
            },
            "TAETORD": {
                "Variable Label": "Planned Order of Element within Arm",
                "Type": "Num",
                "Controlled Terms, Codelist or Format": " ",
                "Core": "Perm",
                "Order": 19.0
            },
            "EPOCH": {
                "Variable Label": "Epoch",
                "Type": "Char",
                "Controlled Terms, Codelist or Format": "(EPOCH) ",
                "Core": "Perm",
                "Order": 20.0
            },
            "CEDTC": {
                "Variable Label": "Date/Time of Event Collection",
                "Type": "Char",
                "Controlled Terms, Codelist or Format": "ISO 8601 datetime or interval",
                "Core": "Perm",
                "Order": 21.0
            },
            "CESTDTC": {
                "Variable Label": "Start Date/Time of Clinical Event",
                "Type": "Char",
                "Controlled Terms, Codelist or Format": "ISO 8601 datetime or interval",
                "Core": "Perm",
                "Order": 22.0
            },
            "CEENDTC": {
                "Variable Label": "End Date/Time of Clinical Event",
                "Type": "Char",
                "Controlled Terms, Codelist or Format": "ISO 8601 datetime or interval",
                "Core": "Perm",
                "Order": 23.0
            },
            "CEDY": {
                "Variable Label": "Study Day of Event Collection",
                "Type": "Num",
                "Controlled Terms, Codelist or Format": " ",
                "Core": "Perm",
                "Order": 24.0
            },
            "CESTDY": {
                "Variable Label": "Study Day of Start of Event",
                "Type": "Num",
                "Controlled Terms, Codelist or Format": " ",
                "Core": "Perm",
                "Order": 25.0
            },
            "CEENDY": {
                "Variable Label": "Study Day of End of Event",
                "Type": "Num",
                "Controlled Terms, Codelist or Format": " ",
                "Core": "Perm",
                "Order": 26.0
            },
            "CESTRF": {
                "Variable Label": "Start Relative to Reference Period",
                "Type": "Char",
                "Controlled Terms, Codelist or Format": "(STENRF) ",
                "Core": "Perm",
                "Order": 27.0
            },
            "CEENRF": {
                "Variable Label": "End Relative to Reference Period",
                "Type": "Char",
                "Controlled Terms, Codelist or Format": "(STENRF) ",
                "Core": "Perm",
                "Order": 28.0
            },
            "CESTRTPT": {
                "Variable Label": "Start Relative to Reference Time Point",
                "Type": "Char",
                "Controlled Terms, Codelist or Format": "(STENRF) ",
                "Core": "Perm",
                "Order": 29.0
            },
            "CESTTPT": {
                "Variable Label": "Start Reference Time Point",
                "Type": "Char",
                "Controlled Terms, Codelist or Format": " ",
                "Core": "Perm",
                "Order": 30.0
            },
            "CEENRTPT": {
                "Variable Label": "End Relative to Reference Time Point",
                "Type": "Char",
                "Controlled Terms, Codelist or Format": "(STENRF) ",
                "Core": "Perm",
                "Order": 31.0
            },
            "CEENTPT": {
                "Variable Label": "End Reference Time Point",
                "Type": "Char",
                "Controlled Terms, Codelist or Format": " ",
                "Core": "Perm",
                "Order": 32.0
            }
        },
        "CM": {
            "STUDYID": {
                "Variable Label": "Study Identifier",
                "Type": "Char",
                "Controlled Terms, Codelist or Format": " ",
                "Core": "Req",
                "Order": 1.0
            },
            "DOMAIN": {
                "Variable Label": "Domain Abbreviation",
                "Type": "Char",
                "Controlled Terms, Codelist or Format": "CM ",
                "Core": "Req",
                "Order": 2.0
            },
            "USUBJID": {
                "Variable Label": "Unique Subject Identifier",
                "Type": "Char",
                "Controlled Terms, Codelist or Format": " ",
                "Core": "Req",
                "Order": 3.0
            },
            "CMSEQ": {
                "Variable Label": "Sequence Number",
                "Type": "Num",
                "Controlled Terms, Codelist or Format": " ",
                "Core": "Req",
                "Order": 4.0
            },
            "CMGRPID": {
                "Variable Label": "Group ID",
                "Type": "Char",
                "Controlled Terms, Codelist or Format": " ",
                "Core": "Perm",
                "Order": 5.0
            },
            "CMSPID": {
                "Variable Label": "Sponsor-Defined Identifier",
                "Type": "Char",
                "Controlled Terms, Codelist or Format": " ",
                "Core": "Perm",
                "Order": 6.0
            },
            "CMTRT": {
                "Variable Label": "Reported Name of Drug, Med, or Therapy",
                "Type": "Char",
                "Controlled Terms, Codelist or Format": " ",
                "Core": "Req",
                "Order": 7.0
            },
            "CMMODIFY": {
                "Variable Label": "Modified Reported Name",
                "Type": "Char",
                "Controlled Terms, Codelist or Format": " ",
                "Core": "Perm",
                "Order": 8.0
            },
            "CMDECOD": {
                "Variable Label": "Standardized Medication Name",
                "Type": "Char",
                "Controlled Terms, Codelist or Format": " ",
                "Core": "Perm",
                "Order": 9.0
            },
            "CMCAT": {
                "Variable Label": "Category for Medication",
                "Type": "Char",
                "Controlled Terms, Codelist or Format": " ",
                "Core": "Perm",
                "Order": 10.0
            },
            "CMSCAT": {
                "Variable Label": "Subcategory for Medication",
                "Type": "Char",
                "Controlled Terms, Codelist or Format": " ",
                "Core": "Perm",
                "Order": 11.0
            },
            "CMPRESP": {
                "Variable Label": "CM Pre-specified",
                "Type": "Char",
                "Controlled Terms, Codelist or Format": "(NY) ",
                "Core": "Perm",
                "Order": 12.0
            },
            "CMOCCUR": {
                "Variable Label": "CM Occurrence",
                "Type": "Char",
                "Controlled Terms, Codelist or Format": "(NY) ",
                "Core": "Perm",
                "Order": 13.0
            },
            "CMSTAT": {
                "Variable Label": "Completion Status",
                "Type": "Char",
                "Controlled Terms, Codelist or Format": "(ND) ",
                "Core": "Perm",
                "Order": 14.0
            },
            "CMREASND": {
                "Variable Label": "Reason Medication Not Collected",
                "Type": "Char",
                "Controlled Terms, Codelist or Format": " ",
                "Core": "Perm",
                "Order": 15.0
            },
            "CMINDC": {
                "Variable Label": "Indication",
                "Type": "Char",
                "Controlled Terms, Codelist or Format": " ",
                "Core": "Perm",
                "Order": 16.0
            },
            "CMCLAS": {
                "Variable Label": "Medication Class",
                "Type": "Char",
                "Controlled Terms, Codelist or Format": " ",
                "Core": "Perm",
                "Order": 17.0
            },
            "CMCLASCD": {
                "Variable Label": "Medication Class Code",
                "Type": "Char",
                "Controlled Terms, Codelist or Format": " ",
                "Core": "Perm",
                "Order": 18.0
            },
            "CMDOSE": {
                "Variable Label": "Dose per Administration",
                "Type": "Num",
                "Controlled Terms, Codelist or Format": " ",
                "Core": "Perm",
                "Order": 19.0
            },
            "CMDOSTXT": {
                "Variable Label": "Dose Description",
                "Type": "Char",
                "Controlled Terms, Codelist or Format": " ",
                "Core": "Perm",
                "Order": 20.0
            },
            "CMDOSU": {
                "Variable Label": "Dose Units",
                "Type": "Char",
                "Controlled Terms, Codelist or Format": "(UNIT) ",
                "Core": "Perm",
                "Order": 21.0
            },
            "CMDOSFRM": {
                "Variable Label": "Dose Form",
                "Type": "Char",
                "Controlled Terms, Codelist or Format": "(FRM) ",
                "Core": "Perm",
                "Order": 22.0
            },
            "CMDOSFRQ": {
                "Variable Label": "Dosing Frequency per Interval",
                "Type": "Char",
                "Controlled Terms, Codelist or Format": "(FREQ) ",
                "Core": "Perm",
                "Order": 23.0
            },
            "CMDOSTOT": {
                "Variable Label": "Total Daily Dose",
                "Type": "Num",
                "Controlled Terms, Codelist or Format": " ",
                "Core": "Perm",
                "Order": 24.0
            },
            "CMDOSRGM": {
                "Variable Label": "Intended Dose Regimen",
                "Type": "Char",
                "Controlled Terms, Codelist or Format": " ",
                "Core": "Perm",
                "Order": 25.0
            },
            "CMROUTE": {
                "Variable Label": "Route of Administration",
                "Type": "Char",
                "Controlled Terms, Codelist or Format": "(ROUTE) ",
                "Core": "Perm",
                "Order": 26.0
            },
            "CMADJ": {
                "Variable Label": "Reason for Dose Adjustment",
                "Type": "Char",
                "Controlled Terms, Codelist or Format": " ",
                "Core": "Perm",
                "Order": 27.0
            },
            "CMRSDISC": {
                "Variable Label": "Reason the Intervention Was Discontinued",
                "Type": "Char",
                "Controlled Terms, Codelist or Format": " ",
                "Core": "Perm",
                "Order": 28.0
            },
            "TAETORD": {
                "Variable Label": "Planned Order of Element within Arm",
                "Type": "Num",
                "Controlled Terms, Codelist or Format": " ",
                "Core": "Perm",
                "Order": 29.0
            },
            "EPOCH": {
                "Variable Label": "Epoch",
                "Type": "Char",
                "Controlled Terms, Codelist or Format": "(EPOCH) ",
                "Core": "Perm",
                "Order": 30.0
            },
            "CMSTDTC": {
                "Variable Label": "Start Date/Time of Medication",
                "Type": "Char",
                "Controlled Terms, Codelist or Format": "ISO 8601 datetime or interval",
                "Core": "Perm",
                "Order": 31.0
            },
            "CMENDTC": {
                "Variable Label": "End Date/Time of Medication",
                "Type": "Char",
                "Controlled Terms, Codelist or Format": "ISO 8601 datetime or interval",
                "Core": "Perm",
                "Order": 32.0
            },
            "CMSTDY": {
                "Variable Label": "Study Day of Start of Medication",
                "Type": "Num",
                "Controlled Terms, Codelist or Format": " ",
                "Core": "Perm",
                "Order": 33.0
            },
            "CMENDY": {
                "Variable Label": "Study Day of End of Medication",
                "Type": "Num",
                "Controlled Terms, Codelist or Format": " ",
                "Core": "Perm",
                "Order": 34.0
            },
            "CMDUR": {
                "Variable Label": "Duration",
                "Type": "Char",
                "Controlled Terms, Codelist or Format": "ISO 8601 duration",
                "Core": "Perm",
                "Order": 35.0
            },
            "CMSTRF": {
                "Variable Label": "Start Relative to Reference Period",
                "Type": "Char",
                "Controlled Terms, Codelist or Format": "(STENRF) ",
                "Core": "Perm",
                "Order": 36.0
            },
            "CMENRF": {
                "Variable Label": "End Relative to Reference Period",
                "Type": "Char",
                "Controlled Terms, Codelist or Format": "(STENRF) ",
                "Core": "Perm",
                "Order": 37.0
            },
            "CMSTRTPT": {
                "Variable Label": "Start Relative to Reference Time Point",
                "Type": "Char",
                "Controlled Terms, Codelist or Format": "(STENRF) ",
                "Core": "Perm",
                "Order": 38.0
            },
            "CMSTTPT": {
                "Variable Label": "Start Reference Time Point",
                "Type": "Char",
                "Controlled Terms, Codelist or Format": " ",
                "Core": "Perm",
                "Order": 39.0
            },
            "CMENRTPT": {
                "Variable Label": "End Relative to Reference Time Point",
                "Type": "Char",
                "Controlled Terms, Codelist or Format": "(STENRF) ",
                "Core": "Perm",
                "Order": 40.0
            },
            "CMENTPT": {
                "Variable Label": "End Reference Time Point",
                "Type": "Char",
                "Controlled Terms, Codelist or Format": " ",
                "Core": "Perm",
                "Order": 41.0
            }
        },
        "CO": {
            "STUDYID": {
                "Variable Label": "Study Identifier",
                "Type": "Char",
                "Controlled Terms, Codelist or Format": " ",
                "Core": "Req",
                "Order": 1.0
            },
            "DOMAIN": {
                "Variable Label": "Domain Abbreviation",
                "Type": "Char",
                "Controlled Terms, Codelist or Format": "CO ",
                "Core": "Req",
                "Order": 2.0
            },
            "RDOMAIN": {
                "Variable Label": "Related Domain Abbreviation",
                "Type": "Char",
                "Controlled Terms, Codelist or Format": "(DOMAIN) ",
                "Core": "Perm",
                "Order": 3.0
            },
            "USUBJID": {
                "Variable Label": "Unique Subject Identifier",
                "Type": "Char",
                "Controlled Terms, Codelist or Format": " ",
                "Core": "Req",
                "Order": 4.0
            },
            "COSEQ": {
                "Variable Label": "Sequence Number",
                "Type": "Num",
                "Controlled Terms, Codelist or Format": " ",
                "Core": "Req",
                "Order": 5.0
            },
            "IDVAR": {
                "Variable Label": "Identifying Variable",
                "Type": "Char",
                "Controlled Terms, Codelist or Format": "*",
                "Core": "Perm",
                "Order": 6.0
            },
            "IDVARVAL": {
                "Variable Label": "Identifying Variable Value",
                "Type": "Char",
                "Controlled Terms, Codelist or Format": " ",
                "Core": "Perm",
                "Order": 7.0
            },
            "COREF": {
                "Variable Label": "Comment Reference",
                "Type": "Char",
                "Controlled Terms, Codelist or Format": " ",
                "Core": "Perm",
                "Order": 8.0
            },
            "COVAL": {
                "Variable Label": "Comment",
                "Type": "Char",
                "Controlled Terms, Codelist or Format": " ",
                "Core": "Req",
                "Order": 9.0
            },
            "COEVAL": {
                "Variable Label": "Evaluator",
                "Type": "Char",
                "Controlled Terms, Codelist or Format": "(EVAL) ",
                "Core": "Perm",
                "Order": 10.0
            },
            "COEVALID": {
                "Variable Label": "Evaluator Identifier",
                "Type": "Char",
                "Controlled Terms, Codelist or Format": "(MEDEVAL) ",
                "Core": "Perm",
                "Order": 11.0
            },
            "CODTC": {
                "Variable Label": "Date/Time of Comment",
                "Type": "Char",
                "Controlled Terms, Codelist or Format": "ISO 8601 datetime or interval",
                "Core": "Perm",
                "Order": 12.0
            },
            "CODY": {
                "Variable Label": "Study Day of Comment",
                "Type": "Num",
                "Controlled Terms, Codelist or Format": " ",
                "Core": "Perm",
                "Order": 13.0
            }
        },
        "CP": {
            "STUDYID": {
                "Variable Label": "Study Identifier",
                "Type": "Char",
                "Controlled Terms, Codelist or Format": " ",
                "Core": "Req",
                "Order": 1.0
            },
            "DOMAIN": {
                "Variable Label": "Domain Abbreviation",
                "Type": "Char",
                "Controlled Terms, Codelist or Format": "CP ",
                "Core": "Req",
                "Order": 2.0
            },
            "USUBJID": {
                "Variable Label": "Unique Subject Identifier",
                "Type": "Char",
                "Controlled Terms, Codelist or Format": " ",
                "Core": "Req",
                "Order": 3.0
            },
            "CPSEQ": {
                "Variable Label": "Sequence Number",
                "Type": "Num",
                "Controlled Terms, Codelist or Format": " ",
                "Core": "Req",
                "Order": 4.0
            },
            "CPGRPID": {
                "Variable Label": "Group ID",
                "Type": "Char",
                "Controlled Terms, Codelist or Format": " ",
                "Core": "Perm",
                "Order": 5.0
            },
            "CPREFID": {
                "Variable Label": "Reference ID",
                "Type": "Char",
                "Controlled Terms, Codelist or Format": " ",
                "Core": "Perm",
                "Order": 6.0
            },
            "CPSPID": {
                "Variable Label": "Sponsor-Defined Identifier",
                "Type": "Char",
                "Controlled Terms, Codelist or Format": " ",
                "Core": "Perm",
                "Order": 7.0
            },
            "CPLNKID": {
                "Variable Label": "Link ID",
                "Type": "Char",
                "Controlled Terms, Codelist or Format": " ",
                "Core": "Perm",
                "Order": 8.0
            },
            "CPLNKGRP": {
                "Variable Label": "Link Group ID",
                "Type": "Char",
                "Controlled Terms, Codelist or Format": " ",
                "Core": "Perm",
                "Order": 9.0
            },
            "CPTESTCD": {
                "Variable Label": "Test or Examination Short Name",
                "Type": "Char",
                "Controlled Terms, Codelist or Format": "(CPTESTCD) ",
                "Core": "Req",
                "Order": 10.0
            },
            "CPTEST": {
                "Variable Label": "Name of Measurement, Test or Examination",
                "Type": "Char",
                "Controlled Terms, Codelist or Format": "(CPTEST) ",
                "Core": "Req",
                "Order": 11.0
            },
            "CPSBMRKS": {
                "Variable Label": "Sublineage Marker String",
                "Type": "Char",
                "Controlled Terms, Codelist or Format": " ",
                "Core": "Perm",
                "Order": 12.0
            },
            "CPCELSTA": {
                "Variable Label": "Cell State",
                "Type": "Char",
                "Controlled Terms, Codelist or Format": "(CELSTATE) ",
                "Core": "Perm",
                "Order": 13.0
            },
            "CPCSMRKS": {
                "Variable Label": "Cell State Marker String",
                "Type": "Char",
                "Controlled Terms, Codelist or Format": " ",
                "Core": "Perm",
                "Order": 14.0
            },
            "CPTSTCND": {
                "Variable Label": "Test Condition",
                "Type": "Char",
                "Controlled Terms, Codelist or Format": "(TESTCOND) ",
                "Core": "Perm",
                "Order": 15.0
            },
            "CPCNDAGT": {
                "Variable Label": "Test Condition Agent",
                "Type": "Char",
                "Controlled Terms, Codelist or Format": " ",
                "Core": "Perm",
                "Order": 16.0
            },
            "CPBDAGNT": {
                "Variable Label": "Binding Agent",
                "Type": "Char",
                "Controlled Terms, Codelist or Format": " ",
                "Core": "Perm",
                "Order": 17.0
            },
            "CPABCLID": {
                "Variable Label": "Antibody Clone Identifier",
                "Type": "Char",
                "Controlled Terms, Codelist or Format": " ",
                "Core": "Perm",
                "Order": 18.0
            },
            "CPMRKSTR": {
                "Variable Label": "Marker String",
                "Type": "Char",
                "Controlled Terms, Codelist or Format": " ",
                "Core": "Exp",
                "Order": 19.0
            },
            "CPGATE": {
                "Variable Label": "Gate",
                "Type": "Char",
                "Controlled Terms, Codelist or Format": " ",
                "Core": "Perm",
                "Order": 20.0
            },
            "CPGATDEF": {
                "Variable Label": "Gate Definition",
                "Type": "Char",
                "Controlled Terms, Codelist or Format": " ",
                "Core": "Perm",
                "Order": 21.0
            },
            "CPSPTSTD": {
                "Variable Label": "Sponsor Test Description",
                "Type": "Char",
                "Controlled Terms, Codelist or Format": " ",
                "Core": "Perm",
                "Order": 22.0
            },
            "CPCAT": {
                "Variable Label": "Category",
                "Type": "Char",
                "Controlled Terms, Codelist or Format": "(CPCAT) ",
                "Core": "Perm",
                "Order": 23.0
            },
            "CPSCAT": {
                "Variable Label": "Subcategory",
                "Type": "Char",
                "Controlled Terms, Codelist or Format": " ",
                "Core": "Perm",
                "Order": 24.0
            },
            "CPTSTPNL": {
                "Variable Label": "Test Panel",
                "Type": "Char",
                "Controlled Terms, Codelist or Format": " ",
                "Core": "Perm",
                "Order": 25.0
            },
            "CPORRES": {
                "Variable Label": "Result or Finding in Original Units",
                "Type": "Char",
                "Controlled Terms, Codelist or Format": " ",
                "Core": "Exp",
                "Order": 26.0
            },
            "CPORRESU": {
                "Variable Label": "Original Units",
                "Type": "Char",
                "Controlled Terms, Codelist or Format": "(UNIT) ",
                "Core": "Perm",
                "Order": 27.0
            },
            "CPRESSCL": {
                "Variable Label": "Result Scale",
                "Type": "Char",
                "Controlled Terms, Codelist or Format": "(RSLSCLRS) ",
                "Core": "Perm",
                "Order": 28.0
            },
            "CPRESTYP": {
                "Variable Label": "Result Type",
                "Type": "Char",
                "Controlled Terms, Codelist or Format": "(RESTYPRS) ",
                "Core": "Perm",
                "Order": 29.0
            },
            "CPCOLSRT": {
                "Variable Label": "Collected Summary Result Type",
                "Type": "Char",
                "Controlled Terms, Codelist or Format": "(COLSTYP) ",
                "Core": "Perm",
                "Order": 30.0
            },
            "CPORNRLO": {
                "Variable Label": "Reference Range Lower Limit in Orig Unit",
                "Type": "Char",
                "Controlled Terms, Codelist or Format": " ",
                "Core": "Perm",
                "Order": 31.0
            },
            "CPORNRHI": {
                "Variable Label": "Reference Range Upper Limit in Orig Unit",
                "Type": "Char",
                "Controlled Terms, Codelist or Format": " ",
                "Core": "Perm",
                "Order": 32.0
            },
            "CPSTRESC": {
                "Variable Label": "Result or Finding in Standard Format",
                "Type": "Char",
                "Controlled Terms, Codelist or Format": " ",
                "Core": "Exp",
                "Order": 33.0
            },
            "CPSTRESN": {
                "Variable Label": "Numeric Result/Finding in Standard Units",
                "Type": "Num",
                "Controlled Terms, Codelist or Format": " ",
                "Core": "Perm",
                "Order": 34.0
            },
            "CPSTRESU": {
                "Variable Label": "Standard Units",
                "Type": "Char",
                "Controlled Terms, Codelist or Format": "(UNIT) ",
                "Core": "Perm",
                "Order": 35.0
            },
            "CPSTNRLO": {
                "Variable Label": "Reference Range Lower Limit-Std Units",
                "Type": "Num",
                "Controlled Terms, Codelist or Format": " ",
                "Core": "Perm",
                "Order": 36.0
            },
            "CPSTNRHI": {
                "Variable Label": "Reference Range Upper Limit-Std Units",
                "Type": "Num",
                "Controlled Terms, Codelist or Format": " ",
                "Core": "Perm",
                "Order": 37.0
            },
            "CPNRIND": {
                "Variable Label": "Reference Range Indicator",
                "Type": "Char",
                "Controlled Terms, Codelist or Format": "(NRIND) ",
                "Core": "Perm",
                "Order": 38.0
            },
            "CPSTAT": {
                "Variable Label": "Completion Status",
                "Type": "Char",
                "Controlled Terms, Codelist or Format": "(ND) ",
                "Core": "Perm",
                "Order": 39.0
            },
            "CPREASND": {
                "Variable Label": "Reason Not Done",
                "Type": "Char",
                "Controlled Terms, Codelist or Format": " ",
                "Core": "Perm",
                "Order": 40.0
            },
            "CPNAM": {
                "Variable Label": "Vendor Name",
                "Type": "Char",
                "Controlled Terms, Codelist or Format": " ",
                "Core": "Perm",
                "Order": 41.0
            },
            "CPLOINC": {
                "Variable Label": "LOINC Code",
                "Type": "Char",
                "Controlled Terms, Codelist or Format": "LOINC",
                "Core": "Perm",
                "Order": 42.0
            },
            "CPSPEC": {
                "Variable Label": "Specimen Type",
                "Type": "Char",
                "Controlled Terms, Codelist or Format": "(SPECTYPE) ",
                "Core": "Perm",
                "Order": 43.0
            },
            "CPSPCCND": {
                "Variable Label": "Specimen Condition",
                "Type": "Char",
                "Controlled Terms, Codelist or Format": "(SPECCOND) ",
                "Core": "Perm",
                "Order": 44.0
            },
            "CPMETHOD": {
                "Variable Label": "Method of Test or Examination",
                "Type": "Char",
                "Controlled Terms, Codelist or Format": "(METHOD) ",
                "Core": "Perm",
                "Order": 45.0
            },
            "CPANMETH": {
                "Variable Label": "Analysis Method",
                "Type": "Char",
                "Controlled Terms, Codelist or Format": " ",
                "Core": "Perm",
                "Order": 46.0
            },
            "CPLOBXFL": {
                "Variable Label": "Last Observation Before Exposure Flag",
                "Type": "Char",
                "Controlled Terms, Codelist or Format": "(NY) ",
                "Core": "Perm",
                "Order": 47.0
            },
            "CPBLFL": {
                "Variable Label": "Baseline Flag",
                "Type": "Char",
                "Controlled Terms, Codelist or Format": "(NY) ",
                "Core": "Perm",
                "Order": 48.0
            },
            "CPDRVFL": {
                "Variable Label": "Derived Flag",
                "Type": "Char",
                "Controlled Terms, Codelist or Format": "(NY) ",
                "Core": "Perm",
                "Order": 49.0
            },
            "CPCLSIG": {
                "Variable Label": "Clinically Significant, Collected",
                "Type": "Char",
                "Controlled Terms, Codelist or Format": "(NY) ",
                "Core": "Perm",
                "Order": 50.0
            },
            "VISITNUM": {
                "Variable Label": "Visit Number",
                "Type": "Num",
                "Controlled Terms, Codelist or Format": " ",
                "Core": "Perm",
                "Order": 51.0
            },
            "VISIT": {
                "Variable Label": "Visit Name",
                "Type": "Char",
                "Controlled Terms, Codelist or Format": " ",
                "Core": "Perm",
                "Order": 52.0
            },
            "VISITDY": {
                "Variable Label": "Planned Study Day of Visit",
                "Type": "Num",
                "Controlled Terms, Codelist or Format": " ",
                "Core": "Perm",
                "Order": 53.0
            },
            "TAETORD": {
                "Variable Label": "Planned Order of Element within Arm",
                "Type": "Num",
                "Controlled Terms, Codelist or Format": " ",
                "Core": "Perm",
                "Order": 54.0
            },
            "EPOCH": {
                "Variable Label": "Epoch",
                "Type": "Char",
                "Controlled Terms, Codelist or Format": "(EPOCH) ",
                "Core": "Perm",
                "Order": 55.0
            },
            "CPDTC": {
                "Variable Label": "Date/Time of Collection",
                "Type": "Char",
                "Controlled Terms, Codelist or Format": "ISO 8601 datetime or interval",
                "Core": "Exp",
                "Order": 56.0
            },
            "CPDY": {
                "Variable Label": "Study Day of Visit/Collection/Exam",
                "Type": "Num",
                "Controlled Terms, Codelist or Format": " ",
                "Core": "Perm",
                "Order": 57.0
            },
            "CPTPT": {
                "Variable Label": "Planned Time Point Name",
                "Type": "Char",
                "Controlled Terms, Codelist or Format": " ",
                "Core": "Perm",
                "Order": 58.0
            },
            "CPTPTNUM": {
                "Variable Label": "Planned Time Point Number",
                "Type": "Num",
                "Controlled Terms, Codelist or Format": " ",
                "Core": "Perm",
                "Order": 59.0
            },
            "CPELTM": {
                "Variable Label": "Planned Elapsed Time from Time Point Ref",
                "Type": "Char",
                "Controlled Terms, Codelist or Format": "ISO 8601 duration",
                "Core": "Perm",
                "Order": 60.0
            },
            "CPTPTREF": {
                "Variable Label": "Time Point Reference",
                "Type": "Char",
                "Controlled Terms, Codelist or Format": " ",
                "Core": "Perm",
                "Order": 61.0
            },
            "CPRFTDTC": {
                "Variable Label": "Date/Time of Reference Time Point",
                "Type": "Char",
                "Controlled Terms, Codelist or Format": "ISO 8601 datetime or interval",
                "Core": "Perm",
                "Order": 62.0
            }
        },
        "CV": {
            "STUDYID": {
                "Variable Label": "Study Identifier",
                "Type": "Char",
                "Controlled Terms, Codelist or Format": " ",
                "Core": "Req",
                "Order": 1.0
            },
            "DOMAIN": {
                "Variable Label": "Domain Abbreviation",
                "Type": "Char",
                "Controlled Terms, Codelist or Format": "CV ",
                "Core": "Req",
                "Order": 2.0
            },
            "USUBJID": {
                "Variable Label": "Unique Subject Identifier",
                "Type": "Char",
                "Controlled Terms, Codelist or Format": " ",
                "Core": "Req",
                "Order": 3.0
            },
            "CVSEQ": {
                "Variable Label": "Sequence Number",
                "Type": "Num",
                "Controlled Terms, Codelist or Format": " ",
                "Core": "Req",
                "Order": 4.0
            },
            "CVGRPID": {
                "Variable Label": "Group ID",
                "Type": "Char",
                "Controlled Terms, Codelist or Format": " ",
                "Core": "Perm",
                "Order": 5.0
            },
            "CVREFID": {
                "Variable Label": "Reference ID",
                "Type": "Char",
                "Controlled Terms, Codelist or Format": " ",
                "Core": "Perm",
                "Order": 6.0
            },
            "CVSPID": {
                "Variable Label": "Sponsor-Defined Identifier",
                "Type": "Char",
                "Controlled Terms, Codelist or Format": " ",
                "Core": "Perm",
                "Order": 7.0
            },
            "CVLNKID": {
                "Variable Label": "Link ID",
                "Type": "Char",
                "Controlled Terms, Codelist or Format": " ",
                "Core": "Perm",
                "Order": 8.0
            },
            "CVLNKGRP": {
                "Variable Label": "Link Group",
                "Type": "Char",
                "Controlled Terms, Codelist or Format": " ",
                "Core": "Perm",
                "Order": 9.0
            },
            "CVTESTCD": {
                "Variable Label": "Short Name of Cardiovascular Test",
                "Type": "Char",
                "Controlled Terms, Codelist or Format": "(CVTESTCD) ",
                "Core": "Req",
                "Order": 10.0
            },
            "CVTEST": {
                "Variable Label": "Name of Cardiovascular Test",
                "Type": "Char",
                "Controlled Terms, Codelist or Format": "(CVTEST) ",
                "Core": "Req",
                "Order": 11.0
            },
            "CVCAT": {
                "Variable Label": "Category for Cardiovascular Test",
                "Type": "Char",
                "Controlled Terms, Codelist or Format": "*",
                "Core": "Perm",
                "Order": 12.0
            },
            "CVSCAT": {
                "Variable Label": "Subcategory for Cardiovascular Test",
                "Type": "Char",
                "Controlled Terms, Codelist or Format": "*",
                "Core": "Perm",
                "Order": 13.0
            },
            "CVPOS": {
                "Variable Label": "Position of Subject During Observation",
                "Type": "Char",
                "Controlled Terms, Codelist or Format": "(POSITION) ",
                "Core": "Perm",
                "Order": 14.0
            },
            "CVORRES": {
                "Variable Label": "Result or Finding in Original Units",
                "Type": "Char",
                "Controlled Terms, Codelist or Format": " ",
                "Core": "Exp",
                "Order": 15.0
            },
            "CVORRESU": {
                "Variable Label": "Original Units",
                "Type": "Char",
                "Controlled Terms, Codelist or Format": "(UNIT) ",
                "Core": "Perm",
                "Order": 16.0
            },
            "CVSTRESC": {
                "Variable Label": "Character Result/Finding in Std Format",
                "Type": "Char",
                "Controlled Terms, Codelist or Format": "*",
                "Core": "Exp",
                "Order": 17.0
            },
            "CVSTRESN": {
                "Variable Label": "Numeric Result/Finding in Standard Units",
                "Type": "Num",
                "Controlled Terms, Codelist or Format": " ",
                "Core": "Perm",
                "Order": 18.0
            },
            "CVSTRESU": {
                "Variable Label": "Standard Units",
                "Type": "Char",
                "Controlled Terms, Codelist or Format": "(UNIT) ",
                "Core": "Perm",
                "Order": 19.0
            },
            "CVSTAT": {
                "Variable Label": "Completion Status",
                "Type": "Char",
                "Controlled Terms, Codelist or Format": "(ND) ",
                "Core": "Perm",
                "Order": 20.0
            },
            "CVREASND": {
                "Variable Label": "Reason Not Done",
                "Type": "Char",
                "Controlled Terms, Codelist or Format": " ",
                "Core": "Perm",
                "Order": 21.0
            },
            "CVLOC": {
                "Variable Label": "Location Used for the Measurement",
                "Type": "Char",
                "Controlled Terms, Codelist or Format": "(LOC) ",
                "Core": "Perm",
                "Order": 22.0
            },
            "CVLAT": {
                "Variable Label": "Laterality",
                "Type": "Char",
                "Controlled Terms, Codelist or Format": "(LAT) ",
                "Core": "Perm",
                "Order": 23.0
            },
            "CVDIR": {
                "Variable Label": "Directionality",
                "Type": "Char",
                "Controlled Terms, Codelist or Format": "(DIR) ",
                "Core": "Perm",
                "Order": 24.0
            },
            "CVMETHOD": {
                "Variable Label": "Method of Test or Examination",
                "Type": "Char",
                "Controlled Terms, Codelist or Format": "(METHOD) ",
                "Core": "Perm",
                "Order": 25.0
            },
            "CVLOBXFL": {
                "Variable Label": "Last Observation Before Exposure Flag",
                "Type": "Char",
                "Controlled Terms, Codelist or Format": "(NY) ",
                "Core": "Exp",
                "Order": 26.0
            },
            "CVBLFL": {
                "Variable Label": "Baseline Flag",
                "Type": "Char",
                "Controlled Terms, Codelist or Format": "(NY) ",
                "Core": "Perm",
                "Order": 27.0
            },
            "CVDRVFL": {
                "Variable Label": "Derived Flag",
                "Type": "Char",
                "Controlled Terms, Codelist or Format": "(NY) ",
                "Core": "Perm",
                "Order": 28.0
            },
            "CVEVAL": {
                "Variable Label": "Evaluator",
                "Type": "Char",
                "Controlled Terms, Codelist or Format": "(EVAL) ",
                "Core": "Perm",
                "Order": 29.0
            },
            "CVEVALID": {
                "Variable Label": "Evaluator Identifier",
                "Type": "Char",
                "Controlled Terms, Codelist or Format": "(MEDEVAL) ",
                "Core": "Perm",
                "Order": 30.0
            },
            "VISITNUM": {
                "Variable Label": "Visit Number",
                "Type": "Num",
                "Controlled Terms, Codelist or Format": " ",
                "Core": "Exp",
                "Order": 31.0
            },
            "VISIT": {
                "Variable Label": "Visit Name",
                "Type": "Char",
                "Controlled Terms, Codelist or Format": " ",
                "Core": "Perm",
                "Order": 32.0
            },
            "VISITDY": {
                "Variable Label": "Planned Study Day of Visit",
                "Type": "Num",
                "Controlled Terms, Codelist or Format": " ",
                "Core": "Perm",
                "Order": 33.0
            },
            "TAETORD": {
                "Variable Label": "Planned Order of Element within Arm",
                "Type": "Num",
                "Controlled Terms, Codelist or Format": " ",
                "Core": "Perm",
                "Order": 34.0
            },
            "EPOCH": {
                "Variable Label": "Epoch",
                "Type": "Char",
                "Controlled Terms, Codelist or Format": "(EPOCH) ",
                "Core": "Perm",
                "Order": 35.0
            },
            "CVDTC": {
                "Variable Label": "Date/Time of Test",
                "Type": "Char",
                "Controlled Terms, Codelist or Format": "ISO 8601 datetime or interval",
                "Core": "Exp",
                "Order": 36.0
            },
            "CVDY": {
                "Variable Label": "Study Day of Visit/Collection/Exam",
                "Type": "Num",
                "Controlled Terms, Codelist or Format": " ",
                "Core": "Perm",
                "Order": 37.0
            },
            "CVTPT": {
                "Variable Label": "Planned Time Point Name",
                "Type": "Char",
                "Controlled Terms, Codelist or Format": " ",
                "Core": "Perm",
                "Order": 38.0
            },
            "CVTPTNUM": {
                "Variable Label": "Planned Time Point Number",
                "Type": "Num",
                "Controlled Terms, Codelist or Format": " ",
                "Core": "Perm",
                "Order": 39.0
            },
            "CVELTM": {
                "Variable Label": "Planned Elapsed Time from Time Point Ref",
                "Type": "Char",
                "Controlled Terms, Codelist or Format": "ISO 8601 duration",
                "Core": "Perm",
                "Order": 40.0
            },
            "CVTPTREF": {
                "Variable Label": "Time Point Reference",
                "Type": "Char",
                "Controlled Terms, Codelist or Format": " ",
                "Core": "Perm",
                "Order": 41.0
            },
            "CVRFTDTC": {
                "Variable Label": "Date/Time of Reference Time Point",
                "Type": "Char",
                "Controlled Terms, Codelist or Format": "ISO 8601 datetime or interval",
                "Core": "Perm",
                "Order": 42.0
            }
        },
        "DA": {
            "STUDYID": {
                "Variable Label": "Study Identifier",
                "Type": "Char",
                "Controlled Terms, Codelist or Format": " ",
                "Core": "Req",
                "Order": 1.0
            },
            "DOMAIN": {
                "Variable Label": "Domain Abbreviation",
                "Type": "Char",
                "Controlled Terms, Codelist or Format": "DA ",
                "Core": "Req",
                "Order": 2.0
            },
            "USUBJID": {
                "Variable Label": "Unique Subject Identifier",
                "Type": "Char",
                "Controlled Terms, Codelist or Format": " ",
                "Core": "Req",
                "Order": 3.0
            },
            "DASEQ": {
                "Variable Label": "Sequence Number",
                "Type": "Num",
                "Controlled Terms, Codelist or Format": " ",
                "Core": "Req",
                "Order": 4.0
            },
            "DAGRPID": {
                "Variable Label": "Group ID",
                "Type": "Char",
                "Controlled Terms, Codelist or Format": " ",
                "Core": "Perm",
                "Order": 5.0
            },
            "DAREFID": {
                "Variable Label": "Reference ID",
                "Type": "Char",
                "Controlled Terms, Codelist or Format": " ",
                "Core": "Perm",
                "Order": 6.0
            },
            "DASPID": {
                "Variable Label": "Sponsor-Defined Identifier",
                "Type": "Char",
                "Controlled Terms, Codelist or Format": " ",
                "Core": "Perm",
                "Order": 7.0
            },
            "DALNKID": {
                "Variable Label": "Link ID",
                "Type": "Char",
                "Controlled Terms, Codelist or Format": " ",
                "Core": "Perm",
                "Order": 8.0
            },
            "DALNKGRP": {
                "Variable Label": "Link Group ID",
                "Type": "Char",
                "Controlled Terms, Codelist or Format": " ",
                "Core": "Perm",
                "Order": 9.0
            },
            "DATESTCD": {
                "Variable Label": "Short Name of Accountability Assessment",
                "Type": "Char",
                "Controlled Terms, Codelist or Format": "(DATESTCD) ",
                "Core": "Req",
                "Order": 10.0
            },
            "DATEST": {
                "Variable Label": "Name of Accountability Assessment",
                "Type": "Char",
                "Controlled Terms, Codelist or Format": "(DATEST) ",
                "Core": "Req",
                "Order": 11.0
            },
            "DACAT": {
                "Variable Label": "Category",
                "Type": "Char",
                "Controlled Terms, Codelist or Format": "*",
                "Core": "Perm",
                "Order": 12.0
            },
            "DASCAT": {
                "Variable Label": "Subcategory",
                "Type": "Char",
                "Controlled Terms, Codelist or Format": "*",
                "Core": "Perm",
                "Order": 13.0
            },
            "DAORRES": {
                "Variable Label": "Result or Finding in Original Units",
                "Type": "Char",
                "Controlled Terms, Codelist or Format": " ",
                "Core": "Exp",
                "Order": 14.0
            },
            "DAORRESU": {
                "Variable Label": "Original Units",
                "Type": "Char",
                "Controlled Terms, Codelist or Format": "(UNIT) ",
                "Core": "Perm",
                "Order": 15.0
            },
            "DASTRESC": {
                "Variable Label": "Result or Finding in Standard Format",
                "Type": "Char",
                "Controlled Terms, Codelist or Format": " ",
                "Core": "Exp",
                "Order": 16.0
            },
            "DASTRESN": {
                "Variable Label": "Numeric Result/Finding in Standard Units",
                "Type": "Num",
                "Controlled Terms, Codelist or Format": " ",
                "Core": "Perm",
                "Order": 17.0
            },
            "DASTRESU": {
                "Variable Label": "Standard Units",
                "Type": "Char",
                "Controlled Terms, Codelist or Format": "(UNIT) ",
                "Core": "Perm",
                "Order": 18.0
            },
            "DASTAT": {
                "Variable Label": "Completion Status",
                "Type": "Char",
                "Controlled Terms, Codelist or Format": "(ND) ",
                "Core": "Perm",
                "Order": 19.0
            },
            "DAREASND": {
                "Variable Label": "Reason Not Done",
                "Type": "Char",
                "Controlled Terms, Codelist or Format": " ",
                "Core": "Perm",
                "Order": 20.0
            },
            "VISITNUM": {
                "Variable Label": "Visit Number",
                "Type": "Num",
                "Controlled Terms, Codelist or Format": " ",
                "Core": "Exp",
                "Order": 21.0
            },
            "VISIT": {
                "Variable Label": "Visit Name",
                "Type": "Char",
                "Controlled Terms, Codelist or Format": " ",
                "Core": "Perm",
                "Order": 22.0
            },
            "VISITDY": {
                "Variable Label": "Planned Study Day of Visit",
                "Type": "Num",
                "Controlled Terms, Codelist or Format": " ",
                "Core": "Perm",
                "Order": 23.0
            },
            "TAETORD": {
                "Variable Label": "Planned Order of Element within Arm",
                "Type": "Num",
                "Controlled Terms, Codelist or Format": " ",
                "Core": "Perm",
                "Order": 24.0
            },
            "EPOCH": {
                "Variable Label": "Epoch",
                "Type": "Char",
                "Controlled Terms, Codelist or Format": "(EPOCH) ",
                "Core": "Perm",
                "Order": 25.0
            },
            "DADTC": {
                "Variable Label": "Date/Time of Collection",
                "Type": "Char",
                "Controlled Terms, Codelist or Format": "ISO 8601 datetime or interval",
                "Core": "Exp",
                "Order": 26.0
            },
            "DADY": {
                "Variable Label": "Study Day of Visit/Collection/Exam",
                "Type": "Num",
                "Controlled Terms, Codelist or Format": " ",
                "Core": "Perm",
                "Order": 27.0
            }
        },
        "DD": {
            "STUDYID": {
                "Variable Label": "Study Identifier",
                "Type": "Char",
                "Controlled Terms, Codelist or Format": " ",
                "Core": "Req",
                "Order": 1.0
            },
            "DOMAIN": {
                "Variable Label": "Domain Abbreviation",
                "Type": "Char",
                "Controlled Terms, Codelist or Format": "DD ",
                "Core": "Req",
                "Order": 2.0
            },
            "USUBJID": {
                "Variable Label": "Unique Subject Identifier",
                "Type": "Char",
                "Controlled Terms, Codelist or Format": " ",
                "Core": "Req",
                "Order": 3.0
            },
            "DDSEQ": {
                "Variable Label": "Sequence Number",
                "Type": "Num",
                "Controlled Terms, Codelist or Format": " ",
                "Core": "Req",
                "Order": 4.0
            },
            "DDTESTCD": {
                "Variable Label": "Death Detail Assessment Short Name",
                "Type": "Char",
                "Controlled Terms, Codelist or Format": "(DTHDXCD) ",
                "Core": "Req",
                "Order": 5.0
            },
            "DDTEST": {
                "Variable Label": "Death Detail Assessment Name",
                "Type": "Char",
                "Controlled Terms, Codelist or Format": "(DTHDX) ",
                "Core": "Req",
                "Order": 6.0
            },
            "DDORRES": {
                "Variable Label": "Result or Finding as Collected",
                "Type": "Char",
                "Controlled Terms, Codelist or Format": " ",
                "Core": "Exp",
                "Order": 7.0
            },
            "DDSTRESC": {
                "Variable Label": "Character Result/Finding in Std Format",
                "Type": "Char",
                "Controlled Terms, Codelist or Format": " ",
                "Core": "Exp",
                "Order": 8.0
            },
            "DDRESCAT": {
                "Variable Label": "Result Category",
                "Type": "Char",
                "Controlled Terms, Codelist or Format": "*",
                "Core": "Perm",
                "Order": 9.0
            },
            "DDEVAL": {
                "Variable Label": "Evaluator",
                "Type": "Char",
                "Controlled Terms, Codelist or Format": "(EVAL) ",
                "Core": "Perm",
                "Order": 10.0
            },
            "DDDTC": {
                "Variable Label": "Date/Time of Collection",
                "Type": "Char",
                "Controlled Terms, Codelist or Format": "ISO 8601 datetime or interval",
                "Core": "Exp",
                "Order": 11.0
            },
            "DDDY": {
                "Variable Label": "Study Day of Collection",
                "Type": "Num",
                "Controlled Terms, Codelist or Format": " ",
                "Core": "Perm",
                "Order": 12.0
            }
        },
        "DM": {
            "STUDYID": {
                "Variable Label": "Study Identifier",
                "Type": "Char",
                "Controlled Terms, Codelist or Format": " ",
                "Core": "Req",
                "Order": 1.0
            },
            "DOMAIN": {
                "Variable Label": "Domain Abbreviation",
                "Type": "Char",
                "Controlled Terms, Codelist or Format": "DM ",
                "Core": "Req",
                "Order": 2.0
            },
            "USUBJID": {
                "Variable Label": "Unique Subject Identifier",
                "Type": "Char",
                "Controlled Terms, Codelist or Format": " ",
                "Core": "Req",
                "Order": 3.0
            },
            "SUBJID": {
                "Variable Label": "Subject Identifier for the Study",
                "Type": "Char",
                "Controlled Terms, Codelist or Format": " ",
                "Core": "Req",
                "Order": 4.0
            },
            "RFSTDTC": {
                "Variable Label": "Subject Reference Start Date/Time",
                "Type": "Char",
                "Controlled Terms, Codelist or Format": "ISO 8601 datetime or interval",
                "Core": "Exp",
                "Order": 5.0
            },
            "RFENDTC": {
                "Variable Label": "Subject Reference End Date/Time",
                "Type": "Char",
                "Controlled Terms, Codelist or Format": "ISO 8601 datetime or interval",
                "Core": "Exp",
                "Order": 6.0
            },
            "RFXSTDTC": {
                "Variable Label": "Date/Time of First Study Treatment",
                "Type": "Char",
                "Controlled Terms, Codelist or Format": "ISO 8601 datetime or interval",
                "Core": "Exp",
                "Order": 7.0
            },
            "RFXENDTC": {
                "Variable Label": "Date/Time of Last Study Treatment",
                "Type": "Char",
                "Controlled Terms, Codelist or Format": "ISO 8601 datetime or interval",
                "Core": "Exp",
                "Order": 8.0
            },
            "RFCSTDTC": {
                "Variable Label": "Date/Time of First Challenge Agent Admin",
                "Type": "Char",
                "Controlled Terms, Codelist or Format": "ISO 8601 datetime or interval",
                "Core": "Perm",
                "Order": 9.0
            },
            "RFCENDTC": {
                "Variable Label": "Date/Time of Last Challenge Agent Admin",
                "Type": "Char",
                "Controlled Terms, Codelist or Format": "ISO 8601 datetime or interval",
                "Core": "Perm",
                "Order": 10.0
            },
            "RFICDTC": {
                "Variable Label": "Date/Time of Informed Consent",
                "Type": "Char",
                "Controlled Terms, Codelist or Format": "ISO 8601 datetime or interval",
                "Core": "Exp",
                "Order": 11.0
            },
            "RFPENDTC": {
                "Variable Label": "Date/Time of End of Participation",
                "Type": "Char",
                "Controlled Terms, Codelist or Format": "ISO 8601 datetime or interval",
                "Core": "Exp",
                "Order": 12.0
            },
            "DTHDTC": {
                "Variable Label": "Date/Time of Death",
                "Type": "Char",
                "Controlled Terms, Codelist or Format": "ISO 8601 datetime or interval",
                "Core": "Exp",
                "Order": 13.0
            },
            "DTHFL": {
                "Variable Label": "Subject Death Flag",
                "Type": "Char",
                "Controlled Terms, Codelist or Format": "(NY) ",
                "Core": "Exp",
                "Order": 14.0
            },
            "SITEID": {
                "Variable Label": "Study Site Identifier",
                "Type": "Char",
                "Controlled Terms, Codelist or Format": "*",
                "Core": "Req",
                "Order": 15.0
            },
            "INVID": {
                "Variable Label": "Investigator Identifier",
                "Type": "Char",
                "Controlled Terms, Codelist or Format": " ",
                "Core": "Perm",
                "Order": 16.0
            },
            "INVNAM": {
                "Variable Label": "Investigator Name",
                "Type": "Char",
                "Controlled Terms, Codelist or Format": " ",
                "Core": "Perm",
                "Order": 17.0
            },
            "BRTHDTC": {
                "Variable Label": "Date/Time of Birth",
                "Type": "Char",
                "Controlled Terms, Codelist or Format": "ISO 8601 datetime or interval",
                "Core": "Perm",
                "Order": 18.0
            },
            "AGE": {
                "Variable Label": "Age",
                "Type": "Num",
                "Controlled Terms, Codelist or Format": " ",
                "Core": "Exp",
                "Order": 19.0
            },
            "AGEU": {
                "Variable Label": "Age Units",
                "Type": "Char",
                "Controlled Terms, Codelist or Format": "(AGEU) ",
                "Core": "Exp",
                "Order": 20.0
            },
            "SEX": {
                "Variable Label": "Sex",
                "Type": "Char",
                "Controlled Terms, Codelist or Format": "(SEX) ",
                "Core": "Req",
                "Order": 21.0
            },
            "RACE": {
                "Variable Label": "Race",
                "Type": "Char",
                "Controlled Terms, Codelist or Format": "(RACE) ",
                "Core": "Exp",
                "Order": 22.0
            },
            "ETHNIC": {
                "Variable Label": "Ethnicity",
                "Type": "Char",
                "Controlled Terms, Codelist or Format": "(ETHNIC) ",
                "Core": "Perm",
                "Order": 23.0
            },
            "ARMCD": {
                "Variable Label": "Planned Arm Code",
                "Type": "Char",
                "Controlled Terms, Codelist or Format": "*",
                "Core": "Exp",
                "Order": 24.0
            },
            "ARM": {
                "Variable Label": "Description of Planned Arm",
                "Type": "Char",
                "Controlled Terms, Codelist or Format": "*",
                "Core": "Exp",
                "Order": 25.0
            },
            "ACTARMCD": {
                "Variable Label": "Actual Arm Code",
                "Type": "Char",
                "Controlled Terms, Codelist or Format": "*",
                "Core": "Exp",
                "Order": 26.0
            },
            "ACTARM": {
                "Variable Label": "Description of Actual Arm",
                "Type": "Char",
                "Controlled Terms, Codelist or Format": "*",
                "Core": "Exp",
                "Order": 27.0
            },
            "ARMNRS": {
                "Variable Label": "Reason Arm and/or Actual Arm is Null",
                "Type": "Char",
                "Controlled Terms, Codelist or Format": "(ARMNULRS) ",
                "Core": "Exp",
                "Order": 28.0
            },
            "ACTARMUD": {
                "Variable Label": "Description of Unplanned Actual Arm",
                "Type": "Char",
                "Controlled Terms, Codelist or Format": " ",
                "Core": "Exp",
                "Order": 29.0
            },
            "COUNTRY": {
                "Variable Label": "Country",
                "Type": "Char",
                "Controlled Terms, Codelist or Format": " ",
                "Core": "Req",
                "Order": 30.0
            },
            "DMDTC": {
                "Variable Label": "Date/Time of Collection",
                "Type": "Char",
                "Controlled Terms, Codelist or Format": "ISO 8601 datetime or interval",
                "Core": "Perm",
                "Order": 31.0
            },
            "DMDY": {
                "Variable Label": "Study Day of Collection",
                "Type": "Num",
                "Controlled Terms, Codelist or Format": " ",
                "Core": "Perm",
                "Order": 32.0
            }
        },
        "DS": {
            "STUDYID": {
                "Variable Label": "Study Identifier",
                "Type": "Char",
                "Controlled Terms, Codelist or Format": " ",
                "Core": "Req",
                "Order": 1.0
            },
            "DOMAIN": {
                "Variable Label": "Domain Abbreviation",
                "Type": "Char",
                "Controlled Terms, Codelist or Format": "DS ",
                "Core": "Req",
                "Order": 2.0
            },
            "USUBJID": {
                "Variable Label": "Unique Subject Identifier",
                "Type": "Char",
                "Controlled Terms, Codelist or Format": " ",
                "Core": "Req",
                "Order": 3.0
            },
            "DSSEQ": {
                "Variable Label": "Sequence Number",
                "Type": "Num",
                "Controlled Terms, Codelist or Format": " ",
                "Core": "Req",
                "Order": 4.0
            },
            "DSGRPID": {
                "Variable Label": "Group ID",
                "Type": "Char",
                "Controlled Terms, Codelist or Format": " ",
                "Core": "Perm",
                "Order": 5.0
            },
            "DSREFID": {
                "Variable Label": "Reference ID",
                "Type": "Char",
                "Controlled Terms, Codelist or Format": " ",
                "Core": "Perm",
                "Order": 6.0
            },
            "DSSPID": {
                "Variable Label": "Sponsor-Defined Identifier",
                "Type": "Char",
                "Controlled Terms, Codelist or Format": " ",
                "Core": "Perm",
                "Order": 7.0
            },
            "DSTERM": {
                "Variable Label": "Reported Term for the Disposition Event",
                "Type": "Char",
                "Controlled Terms, Codelist or Format": " ",
                "Core": "Req",
                "Order": 8.0
            },
            "DSDECOD": {
                "Variable Label": "Standardized Disposition Term",
                "Type": "Char",
                "Controlled Terms, Codelist or Format": "(NCOMPLT)(PROTMLST)(OTHEVENT) ",
                "Core": "Req",
                "Order": 9.0
            },
            "DSCAT": {
                "Variable Label": "Category for Disposition Event",
                "Type": "Char",
                "Controlled Terms, Codelist or Format": "(DSCAT) ",
                "Core": "Exp",
                "Order": 10.0
            },
            "DSSCAT": {
                "Variable Label": "Subcategory for Disposition Event",
                "Type": "Char",
                "Controlled Terms, Codelist or Format": "(DSSCAT) ",
                "Core": "Perm",
                "Order": 11.0
            },
            "EPOCH": {
                "Variable Label": "Epoch",
                "Type": "Char",
                "Controlled Terms, Codelist or Format": "(EPOCH) ",
                "Core": "Perm",
                "Order": 12.0
            },
            "DSDTC": {
                "Variable Label": "Date/Time of Collection",
                "Type": "Char",
                "Controlled Terms, Codelist or Format": "ISO 8601 datetime or interval",
                "Core": "Perm",
                "Order": 13.0
            },
            "DSSTDTC": {
                "Variable Label": "Start Date/Time of Disposition Event",
                "Type": "Char",
                "Controlled Terms, Codelist or Format": "ISO 8601 datetime or interval",
                "Core": "Exp",
                "Order": 14.0
            },
            "DSDY": {
                "Variable Label": "Study Day of Collection",
                "Type": "Num",
                "Controlled Terms, Codelist or Format": " ",
                "Core": "Perm",
                "Order": 15.0
            },
            "DSSTDY": {
                "Variable Label": "Study Day of Start of Disposition Event",
                "Type": "Num",
                "Controlled Terms, Codelist or Format": " ",
                "Core": "Exp",
                "Order": 16.0
            }
        },
        "DV": {
            "STUDYID": {
                "Variable Label": "Study Identifier",
                "Type": "Char",
                "Controlled Terms, Codelist or Format": " ",
                "Core": "Req",
                "Order": 1.0
            },
            "DOMAIN": {
                "Variable Label": "Domain Abbreviation",
                "Type": "Char",
                "Controlled Terms, Codelist or Format": "DV ",
                "Core": "Req",
                "Order": 2.0
            },
            "USUBJID": {
                "Variable Label": "Unique Subject Identifier",
                "Type": "Char",
                "Controlled Terms, Codelist or Format": " ",
                "Core": "Req",
                "Order": 3.0
            },
            "DVSEQ": {
                "Variable Label": "Sequence Number",
                "Type": "Num",
                "Controlled Terms, Codelist or Format": " ",
                "Core": "Req",
                "Order": 4.0
            },
            "DVREFID": {
                "Variable Label": "Reference ID",
                "Type": "Char",
                "Controlled Terms, Codelist or Format": " ",
                "Core": "Perm",
                "Order": 5.0
            },
            "DVSPID": {
                "Variable Label": "Sponsor-Defined Identifier",
                "Type": "Char",
                "Controlled Terms, Codelist or Format": " ",
                "Core": "Perm",
                "Order": 6.0
            },
            "DVTERM": {
                "Variable Label": "Protocol Deviation Term",
                "Type": "Char",
                "Controlled Terms, Codelist or Format": " ",
                "Core": "Req",
                "Order": 7.0
            },
            "DVDECOD": {
                "Variable Label": "Protocol Deviation Coded Term",
                "Type": "Char",
                "Controlled Terms, Codelist or Format": "*",
                "Core": "Perm",
                "Order": 8.0
            },
            "DVCAT": {
                "Variable Label": "Category for Protocol Deviation",
                "Type": "Char",
                "Controlled Terms, Codelist or Format": "*",
                "Core": "Perm",
                "Order": 9.0
            },
            "DVSCAT": {
                "Variable Label": "Subcategory for Protocol Deviation",
                "Type": "Char",
                "Controlled Terms, Codelist or Format": "*",
                "Core": "Perm",
                "Order": 10.0
            },
            "TAETORD": {
                "Variable Label": "Planned Order of Element within Arm",
                "Type": "Num",
                "Controlled Terms, Codelist or Format": " ",
                "Core": "Perm",
                "Order": 11.0
            },
            "EPOCH": {
                "Variable Label": "Epoch",
                "Type": "Char",
                "Controlled Terms, Codelist or Format": "(EPOCH) ",
                "Core": "Perm",
                "Order": 12.0
            },
            "DVSTDTC": {
                "Variable Label": "Start Date/Time of Deviation",
                "Type": "Char",
                "Controlled Terms, Codelist or Format": "ISO 8601 datetime or interval",
                "Core": "Perm",
                "Order": 13.0
            },
            "DVENDTC": {
                "Variable Label": "End Date/Time of Deviation",
                "Type": "Char",
                "Controlled Terms, Codelist or Format": "ISO 8601 datetime or interval",
                "Core": "Perm",
                "Order": 14.0
            },
            "DVSTDY": {
                "Variable Label": "Study Day of Start of Deviation Event",
                "Type": "Num",
                "Controlled Terms, Codelist or Format": " ",
                "Core": "Perm",
                "Order": 15.0
            },
            "DVENDY": {
                "Variable Label": "Study Day of End of Deviation Event",
                "Type": "Num",
                "Controlled Terms, Codelist or Format": " ",
                "Core": "Perm",
                "Order": 16.0
            }
        },
        "EC": {
            "STUDYID": {
                "Variable Label": "Study Identifier",
                "Type": "Char",
                "Controlled Terms, Codelist or Format": " ",
                "Core": "Req",
                "Order": 1.0
            },
            "DOMAIN": {
                "Variable Label": "Domain Abbreviation",
                "Type": "Char",
                "Controlled Terms, Codelist or Format": "EC ",
                "Core": "Req",
                "Order": 2.0
            },
            "USUBJID": {
                "Variable Label": "Unique Subject Identifier",
                "Type": "Char",
                "Controlled Terms, Codelist or Format": " ",
                "Core": "Req",
                "Order": 3.0
            },
            "ECSEQ": {
                "Variable Label": "Sequence Number",
                "Type": "Num",
                "Controlled Terms, Codelist or Format": " ",
                "Core": "Req",
                "Order": 4.0
            },
            "ECGRPID": {
                "Variable Label": "Group ID",
                "Type": "Char",
                "Controlled Terms, Codelist or Format": " ",
                "Core": "Perm",
                "Order": 5.0
            },
            "ECREFID": {
                "Variable Label": "Reference ID",
                "Type": "Char",
                "Controlled Terms, Codelist or Format": " ",
                "Core": "Perm",
                "Order": 6.0
            },
            "ECSPID": {
                "Variable Label": "Sponsor-Defined Identifier",
                "Type": "Char",
                "Controlled Terms, Codelist or Format": " ",
                "Core": "Perm",
                "Order": 7.0
            },
            "ECLNKID": {
                "Variable Label": "Link ID",
                "Type": "Char",
                "Controlled Terms, Codelist or Format": " ",
                "Core": "Perm",
                "Order": 8.0
            },
            "ECLNKGRP": {
                "Variable Label": "Link Group ID",
                "Type": "Char",
                "Controlled Terms, Codelist or Format": " ",
                "Core": "Perm",
                "Order": 9.0
            },
            "ECTRT": {
                "Variable Label": "Name of Treatment",
                "Type": "Char",
                "Controlled Terms, Codelist or Format": "*",
                "Core": "Req",
                "Order": 10.0
            },
            "ECMOOD": {
                "Variable Label": "Mood",
                "Type": "Char",
                "Controlled Terms, Codelist or Format": "(BRDGMOOD) ",
                "Core": "Perm",
                "Order": 11.0
            },
            "ECCAT": {
                "Variable Label": "Category of Treatment",
                "Type": "Char",
                "Controlled Terms, Codelist or Format": "*",
                "Core": "Perm",
                "Order": 12.0
            },
            "ECSCAT": {
                "Variable Label": "Subcategory of Treatment",
                "Type": "Char",
                "Controlled Terms, Codelist or Format": "*",
                "Core": "Perm",
                "Order": 13.0
            },
            "ECPRESP": {
                "Variable Label": "Pre-Specified",
                "Type": "Char",
                "Controlled Terms, Codelist or Format": "(NY) ",
                "Core": "Perm",
                "Order": 14.0
            },
            "ECOCCUR": {
                "Variable Label": "Occurrence",
                "Type": "Char",
                "Controlled Terms, Codelist or Format": "(NY) ",
                "Core": "Perm",
                "Order": 15.0
            },
            "ECREASOC": {
                "Variable Label": "Reason for Occur Value",
                "Type": "Char",
                "Controlled Terms, Codelist or Format": " ",
                "Core": "Perm",
                "Order": 16.0
            },
            "ECDOSE": {
                "Variable Label": "Dose",
                "Type": "Num",
                "Controlled Terms, Codelist or Format": " ",
                "Core": "Exp",
                "Order": 17.0
            },
            "ECDOSTXT": {
                "Variable Label": "Dose Description",
                "Type": "Char",
                "Controlled Terms, Codelist or Format": " ",
                "Core": "Perm",
                "Order": 18.0
            },
            "ECDOSU": {
                "Variable Label": "Dose Units",
                "Type": "Char",
                "Controlled Terms, Codelist or Format": "(UNIT) ",
                "Core": "Exp",
                "Order": 19.0
            },
            "ECDOSFRM": {
                "Variable Label": "Dose Form",
                "Type": "Char",
                "Controlled Terms, Codelist or Format": "(FRM) ",
                "Core": "Exp",
                "Order": 20.0
            },
            "ECDOSFRQ": {
                "Variable Label": "Dosing Frequency per Interval",
                "Type": "Char",
                "Controlled Terms, Codelist or Format": "(FREQ) ",
                "Core": "Perm",
                "Order": 21.0
            },
            "ECDOSTOT": {
                "Variable Label": "Total Daily Dose",
                "Type": "Num",
                "Controlled Terms, Codelist or Format": " ",
                "Core": "Perm",
                "Order": 22.0
            },
            "ECDOSRGM": {
                "Variable Label": "Intended Dose Regimen",
                "Type": "Char",
                "Controlled Terms, Codelist or Format": " ",
                "Core": "Perm",
                "Order": 23.0
            },
            "ECROUTE": {
                "Variable Label": "Route of Administration",
                "Type": "Char",
                "Controlled Terms, Codelist or Format": "(ROUTE) ",
                "Core": "Perm",
                "Order": 24.0
            },
            "ECLOT": {
                "Variable Label": "Lot Number",
                "Type": "Char",
                "Controlled Terms, Codelist or Format": " ",
                "Core": "Perm",
                "Order": 25.0
            },
            "ECLOC": {
                "Variable Label": "Location of Dose Administration",
                "Type": "Char",
                "Controlled Terms, Codelist or Format": "(LOC) ",
                "Core": "Perm",
                "Order": 26.0
            },
            "ECLAT": {
                "Variable Label": "Laterality",
                "Type": "Char",
                "Controlled Terms, Codelist or Format": "(LAT) ",
                "Core": "Perm",
                "Order": 27.0
            },
            "ECDIR": {
                "Variable Label": "Directionality",
                "Type": "Char",
                "Controlled Terms, Codelist or Format": "(DIR) ",
                "Core": "Perm",
                "Order": 28.0
            },
            "ECPORTOT": {
                "Variable Label": "Portion or Totality",
                "Type": "Char",
                "Controlled Terms, Codelist or Format": "(PORTOT) ",
                "Core": "Perm",
                "Order": 29.0
            },
            "ECFAST": {
                "Variable Label": "Fasting Status",
                "Type": "Char",
                "Controlled Terms, Codelist or Format": "(NY) ",
                "Core": "Perm",
                "Order": 30.0
            },
            "ECPSTRG": {
                "Variable Label": "Pharmaceutical Strength",
                "Type": "Num",
                "Controlled Terms, Codelist or Format": " ",
                "Core": "Perm",
                "Order": 31.0
            },
            "ECPSTRGU": {
                "Variable Label": "Pharmaceutical Strength Units",
                "Type": "Char",
                "Controlled Terms, Codelist or Format": "(UNIT) ",
                "Core": "Perm",
                "Order": 32.0
            },
            "ECADJ": {
                "Variable Label": "Reason for Dose Adjustment",
                "Type": "Char",
                "Controlled Terms, Codelist or Format": " ",
                "Core": "Perm",
                "Order": 33.0
            },
            "TAETORD": {
                "Variable Label": "Planned Order of Element within Arm",
                "Type": "Num",
                "Controlled Terms, Codelist or Format": " ",
                "Core": "Perm",
                "Order": 34.0
            },
            "EPOCH": {
                "Variable Label": "Epoch",
                "Type": "Char",
                "Controlled Terms, Codelist or Format": "(EPOCH) ",
                "Core": "Perm",
                "Order": 35.0
            },
            "ECSTDTC": {
                "Variable Label": "Start Date/Time of Treatment",
                "Type": "Char",
                "Controlled Terms, Codelist or Format": "ISO 8601 datetime or interval",
                "Core": "Exp",
                "Order": 36.0
            },
            "ECENDTC": {
                "Variable Label": "End Date/Time of Treatment",
                "Type": "Char",
                "Controlled Terms, Codelist or Format": "ISO 8601 datetime or interval",
                "Core": "Exp",
                "Order": 37.0
            },
            "ECSTDY": {
                "Variable Label": "Study Day of Start of Treatment",
                "Type": "Num",
                "Controlled Terms, Codelist or Format": " ",
                "Core": "Perm",
                "Order": 38.0
            },
            "ECENDY": {
                "Variable Label": "Study Day of End of Treatment",
                "Type": "Num",
                "Controlled Terms, Codelist or Format": " ",
                "Core": "Perm",
                "Order": 39.0
            },
            "ECDUR": {
                "Variable Label": "Duration of Treatment",
                "Type": "Char",
                "Controlled Terms, Codelist or Format": "ISO 8601 duration",
                "Core": "Perm",
                "Order": 40.0
            },
            "ECTPT": {
                "Variable Label": "Planned Time Point Name",
                "Type": "Char",
                "Controlled Terms, Codelist or Format": " ",
                "Core": "Perm",
                "Order": 41.0
            },
            "ECTPTNUM": {
                "Variable Label": "Planned Time Point Number",
                "Type": "Num",
                "Controlled Terms, Codelist or Format": " ",
                "Core": "Perm",
                "Order": 42.0
            },
            "ECELTM": {
                "Variable Label": "Planned Elapsed Time from Time Point Ref",
                "Type": "Char",
                "Controlled Terms, Codelist or Format": "ISO 8601 duration",
                "Core": "Perm",
                "Order": 43.0
            },
            "ECTPTREF": {
                "Variable Label": "Time Point Reference",
                "Type": "Char",
                "Controlled Terms, Codelist or Format": " ",
                "Core": "Perm",
                "Order": 44.0
            },
            "ECRFTDTC": {
                "Variable Label": "Date/Time of Reference Time Point",
                "Type": "Char",
                "Controlled Terms, Codelist or Format": "ISO 8601 datetime or interval",
                "Core": "Perm",
                "Order": 45.0
            }
        },
        "EG": {
            "STUDYID": {
                "Variable Label": "Study Identifier",
                "Type": "Char",
                "Controlled Terms, Codelist or Format": " ",
                "Core": "Req",
                "Order": 1.0
            },
            "DOMAIN": {
                "Variable Label": "Domain Abbreviation",
                "Type": "Char",
                "Controlled Terms, Codelist or Format": "EG ",
                "Core": "Req",
                "Order": 2.0
            },
            "USUBJID": {
                "Variable Label": "Unique Subject Identifier",
                "Type": "Char",
                "Controlled Terms, Codelist or Format": " ",
                "Core": "Req",
                "Order": 3.0
            },
            "SPDEVID": {
                "Variable Label": "Sponsor Device Identifier",
                "Type": "Char",
                "Controlled Terms, Codelist or Format": " ",
                "Core": "Perm",
                "Order": 4.0
            },
            "EGSEQ": {
                "Variable Label": "Sequence Number",
                "Type": "Num",
                "Controlled Terms, Codelist or Format": " ",
                "Core": "Req",
                "Order": 5.0
            },
            "EGGRPID": {
                "Variable Label": "Group ID",
                "Type": "Char",
                "Controlled Terms, Codelist or Format": " ",
                "Core": "Perm",
                "Order": 6.0
            },
            "EGREFID": {
                "Variable Label": "ECG Reference ID",
                "Type": "Char",
                "Controlled Terms, Codelist or Format": " ",
                "Core": "Perm",
                "Order": 7.0
            },
            "EGSPID": {
                "Variable Label": "Sponsor-Defined Identifier",
                "Type": "Char",
                "Controlled Terms, Codelist or Format": " ",
                "Core": "Perm",
                "Order": 8.0
            },
            "EGBEATNO": {
                "Variable Label": "ECG Beat Number",
                "Type": "Num",
                "Controlled Terms, Codelist or Format": " ",
                "Core": "Perm",
                "Order": 9.0
            },
            "EGTESTCD": {
                "Variable Label": "ECG Test or Examination Short Name",
                "Type": "Char",
                "Controlled Terms, Codelist or Format": "(EGTESTCD)(HETESTCD) ",
                "Core": "Req",
                "Order": 10.0
            },
            "EGTEST": {
                "Variable Label": "ECG Test or Examination Name",
                "Type": "Char",
                "Controlled Terms, Codelist or Format": "(EGTEST)(HETEST) ",
                "Core": "Req",
                "Order": 11.0
            },
            "EGCAT": {
                "Variable Label": "Category for ECG",
                "Type": "Char",
                "Controlled Terms, Codelist or Format": "*",
                "Core": "Perm",
                "Order": 12.0
            },
            "EGSCAT": {
                "Variable Label": "Subcategory for ECG",
                "Type": "Char",
                "Controlled Terms, Codelist or Format": "*",
                "Core": "Perm",
                "Order": 13.0
            },
            "EGPOS": {
                "Variable Label": "ECG Position of Subject",
                "Type": "Char",
                "Controlled Terms, Codelist or Format": "(POSITION) ",
                "Core": "Perm",
                "Order": 14.0
            },
            "EGORRES": {
                "Variable Label": "Result or Finding in Original Units",
                "Type": "Char",
                "Controlled Terms, Codelist or Format": " ",
                "Core": "Exp",
                "Order": 15.0
            },
            "EGORRESU": {
                "Variable Label": "Original Units",
                "Type": "Char",
                "Controlled Terms, Codelist or Format": "(UNIT) ",
                "Core": "Perm",
                "Order": 16.0
            },
            "EGSTRESC": {
                "Variable Label": "Character Result/Finding in Std Format",
                "Type": "Char",
                "Controlled Terms, Codelist or Format": "(EGSTRESC)(HESTRESC)(NORMABNM) ",
                "Core": "Exp",
                "Order": 17.0
            },
            "EGSTRESN": {
                "Variable Label": "Numeric Result/Finding in Standard Units",
                "Type": "Num",
                "Controlled Terms, Codelist or Format": " ",
                "Core": "Perm",
                "Order": 18.0
            },
            "EGSTRESU": {
                "Variable Label": "Standard Units",
                "Type": "Char",
                "Controlled Terms, Codelist or Format": "(UNIT) ",
                "Core": "Perm",
                "Order": 19.0
            },
            "EGSTAT": {
                "Variable Label": "Completion Status",
                "Type": "Char",
                "Controlled Terms, Codelist or Format": "(ND) ",
                "Core": "Perm",
                "Order": 20.0
            },
            "EGREASND": {
                "Variable Label": "Reason ECG Not Done",
                "Type": "Char",
                "Controlled Terms, Codelist or Format": " ",
                "Core": "Perm",
                "Order": 21.0
            },
            "EGXFN": {
                "Variable Label": "ECG External File Path",
                "Type": "Char",
                "Controlled Terms, Codelist or Format": " ",
                "Core": "Perm",
                "Order": 22.0
            },
            "EGNAM": {
                "Variable Label": "Vendor Name",
                "Type": "Char",
                "Controlled Terms, Codelist or Format": " ",
                "Core": "Perm",
                "Order": 23.0
            },
            "EGMETHOD": {
                "Variable Label": "Method of Test or Examination",
                "Type": "Char",
                "Controlled Terms, Codelist or Format": "(EGMETHOD) ",
                "Core": "Perm",
                "Order": 24.0
            },
            "EGLEAD": {
                "Variable Label": "Lead Location Used for Measurement",
                "Type": "Char",
                "Controlled Terms, Codelist or Format": "(EGLEAD) ",
                "Core": "Perm",
                "Order": 25.0
            },
            "EGLOBXFL": {
                "Variable Label": "Last Observation Before Exposure Flag",
                "Type": "Char",
                "Controlled Terms, Codelist or Format": "(NY) ",
                "Core": "Exp",
                "Order": 26.0
            },
            "EGBLFL": {
                "Variable Label": "Baseline Flag",
                "Type": "Char",
                "Controlled Terms, Codelist or Format": "(NY) ",
                "Core": "Perm",
                "Order": 27.0
            },
            "EGDRVFL": {
                "Variable Label": "Derived Flag",
                "Type": "Char",
                "Controlled Terms, Codelist or Format": "(NY) ",
                "Core": "Perm",
                "Order": 28.0
            },
            "EGEVAL": {
                "Variable Label": "Evaluator",
                "Type": "Char",
                "Controlled Terms, Codelist or Format": "(EVAL) ",
                "Core": "Perm",
                "Order": 29.0
            },
            "EGEVALID": {
                "Variable Label": "Evaluator Identifier",
                "Type": "Char",
                "Controlled Terms, Codelist or Format": "(MEDEVAL) ",
                "Core": "Perm",
                "Order": 30.0
            },
            "EGCLSIG": {
                "Variable Label": "Clinically Significant, Collected",
                "Type": "Char",
                "Controlled Terms, Codelist or Format": "(NY) ",
                "Core": "Perm",
                "Order": 31.0
            },
            "EGREPNUM": {
                "Variable Label": "Repetition Number",
                "Type": "Num",
                "Controlled Terms, Codelist or Format": " ",
                "Core": "Perm",
                "Order": 32.0
            },
            "VISITNUM": {
                "Variable Label": "Visit Number",
                "Type": "Num",
                "Controlled Terms, Codelist or Format": " ",
                "Core": "Exp",
                "Order": 33.0
            },
            "VISIT": {
                "Variable Label": "Visit Name",
                "Type": "Char",
                "Controlled Terms, Codelist or Format": " ",
                "Core": "Perm",
                "Order": 34.0
            },
            "VISITDY": {
                "Variable Label": "Planned Study Day of Visit",
                "Type": "Num",
                "Controlled Terms, Codelist or Format": " ",
                "Core": "Perm",
                "Order": 35.0
            },
            "TAETORD": {
                "Variable Label": "Planned Order of Element within Arm",
                "Type": "Num",
                "Controlled Terms, Codelist or Format": " ",
                "Core": "Perm",
                "Order": 36.0
            },
            "EPOCH": {
                "Variable Label": "Epoch",
                "Type": "Char",
                "Controlled Terms, Codelist or Format": "(EPOCH) ",
                "Core": "Perm",
                "Order": 37.0
            },
            "EGDTC": {
                "Variable Label": "Date/Time of ECG",
                "Type": "Char",
                "Controlled Terms, Codelist or Format": "ISO 8601 datetime or interval",
                "Core": "Exp",
                "Order": 38.0
            },
            "EGDY": {
                "Variable Label": "Study Day of ECG",
                "Type": "Num",
                "Controlled Terms, Codelist or Format": " ",
                "Core": "Perm",
                "Order": 39.0
            },
            "EGTPT": {
                "Variable Label": "Planned Time Point Name",
                "Type": "Char",
                "Controlled Terms, Codelist or Format": " ",
                "Core": "Perm",
                "Order": 40.0
            },
            "EGTPTNUM": {
                "Variable Label": "Planned Time Point Number",
                "Type": "Num",
                "Controlled Terms, Codelist or Format": " ",
                "Core": "Perm",
                "Order": 41.0
            },
            "EGELTM": {
                "Variable Label": "Planned Elapsed Time from Time Point Ref",
                "Type": "Char",
                "Controlled Terms, Codelist or Format": "ISO 8601 duration",
                "Core": "Perm",
                "Order": 42.0
            },
            "EGTPTREF": {
                "Variable Label": "Time Point Reference",
                "Type": "Char",
                "Controlled Terms, Codelist or Format": " ",
                "Core": "Perm",
                "Order": 43.0
            },
            "EGRFTDTC": {
                "Variable Label": "Date/Time of Reference Time Point",
                "Type": "Char",
                "Controlled Terms, Codelist or Format": "ISO 8601 datetime or interval",
                "Core": "Perm",
                "Order": 44.0
            }
        },
        "EX": {
            "STUDYID": {
                "Variable Label": "Study Identifier",
                "Type": "Char",
                "Controlled Terms, Codelist or Format": " ",
                "Core": "Req",
                "Order": 1.0
            },
            "DOMAIN": {
                "Variable Label": "Domain Abbreviation",
                "Type": "Char",
                "Controlled Terms, Codelist or Format": "EX ",
                "Core": "Req",
                "Order": 2.0
            },
            "USUBJID": {
                "Variable Label": "Unique Subject Identifier",
                "Type": "Char",
                "Controlled Terms, Codelist or Format": " ",
                "Core": "Req",
                "Order": 3.0
            },
            "EXSEQ": {
                "Variable Label": "Sequence Number",
                "Type": "Num",
                "Controlled Terms, Codelist or Format": " ",
                "Core": "Req",
                "Order": 4.0
            },
            "EXGRPID": {
                "Variable Label": "Group ID",
                "Type": "Char",
                "Controlled Terms, Codelist or Format": " ",
                "Core": "Perm",
                "Order": 5.0
            },
            "EXREFID": {
                "Variable Label": "Reference ID",
                "Type": "Char",
                "Controlled Terms, Codelist or Format": " ",
                "Core": "Perm",
                "Order": 6.0
            },
            "EXSPID": {
                "Variable Label": "Sponsor-Defined Identifier",
                "Type": "Char",
                "Controlled Terms, Codelist or Format": " ",
                "Core": "Perm",
                "Order": 7.0
            },
            "EXLNKID": {
                "Variable Label": "Link ID",
                "Type": "Char",
                "Controlled Terms, Codelist or Format": " ",
                "Core": "Perm",
                "Order": 8.0
            },
            "EXLNKGRP": {
                "Variable Label": "Link Group ID",
                "Type": "Char",
                "Controlled Terms, Codelist or Format": " ",
                "Core": "Perm",
                "Order": 9.0
            },
            "EXTRT": {
                "Variable Label": "Name of Treatment",
                "Type": "Char",
                "Controlled Terms, Codelist or Format": "*",
                "Core": "Req",
                "Order": 10.0
            },
            "EXCAT": {
                "Variable Label": "Category of Treatment",
                "Type": "Char",
                "Controlled Terms, Codelist or Format": "*",
                "Core": "Perm",
                "Order": 11.0
            },
            "EXSCAT": {
                "Variable Label": "Subcategory of Treatment",
                "Type": "Char",
                "Controlled Terms, Codelist or Format": "*",
                "Core": "Perm",
                "Order": 12.0
            },
            "EXDOSE": {
                "Variable Label": "Dose",
                "Type": "Num",
                "Controlled Terms, Codelist or Format": " ",
                "Core": "Exp",
                "Order": 13.0
            },
            "EXDOSTXT": {
                "Variable Label": "Dose Description",
                "Type": "Char",
                "Controlled Terms, Codelist or Format": " ",
                "Core": "Perm",
                "Order": 14.0
            },
            "EXDOSU": {
                "Variable Label": "Dose Units",
                "Type": "Char",
                "Controlled Terms, Codelist or Format": "(UNIT) ",
                "Core": "Exp",
                "Order": 15.0
            },
            "EXDOSFRM": {
                "Variable Label": "Dose Form",
                "Type": "Char",
                "Controlled Terms, Codelist or Format": "(FRM) ",
                "Core": "Exp",
                "Order": 16.0
            },
            "EXDOSFRQ": {
                "Variable Label": "Dosing Frequency per Interval",
                "Type": "Char",
                "Controlled Terms, Codelist or Format": "(FREQ) ",
                "Core": "Perm",
                "Order": 17.0
            },
            "EXDOSRGM": {
                "Variable Label": "Intended Dose Regimen",
                "Type": "Char",
                "Controlled Terms, Codelist or Format": " ",
                "Core": "Perm",
                "Order": 18.0
            },
            "EXROUTE": {
                "Variable Label": "Route of Administration",
                "Type": "Char",
                "Controlled Terms, Codelist or Format": "(ROUTE) ",
                "Core": "Perm",
                "Order": 19.0
            },
            "EXLOT": {
                "Variable Label": "Lot Number",
                "Type": "Char",
                "Controlled Terms, Codelist or Format": " ",
                "Core": "Perm",
                "Order": 20.0
            },
            "EXLOC": {
                "Variable Label": "Location of Dose Administration",
                "Type": "Char",
                "Controlled Terms, Codelist or Format": "(LOC) ",
                "Core": "Perm",
                "Order": 21.0
            },
            "EXLAT": {
                "Variable Label": "Laterality",
                "Type": "Char",
                "Controlled Terms, Codelist or Format": "(LAT) ",
                "Core": "Perm",
                "Order": 22.0
            },
            "EXDIR": {
                "Variable Label": "Directionality",
                "Type": "Char",
                "Controlled Terms, Codelist or Format": "(DIR) ",
                "Core": "Perm",
                "Order": 23.0
            },
            "EXFAST": {
                "Variable Label": "Fasting Status",
                "Type": "Char",
                "Controlled Terms, Codelist or Format": "(NY) ",
                "Core": "Perm",
                "Order": 24.0
            },
            "EXADJ": {
                "Variable Label": "Reason for Dose Adjustment",
                "Type": "Char",
                "Controlled Terms, Codelist or Format": "*",
                "Core": "Perm",
                "Order": 25.0
            },
            "TAETORD": {
                "Variable Label": "Planned Order of Element within Arm",
                "Type": "Num",
                "Controlled Terms, Codelist or Format": " ",
                "Core": "Perm",
                "Order": 26.0
            },
            "EPOCH": {
                "Variable Label": "Epoch",
                "Type": "Char",
                "Controlled Terms, Codelist or Format": "(EPOCH) ",
                "Core": "Perm",
                "Order": 27.0
            },
            "EXSTDTC": {
                "Variable Label": "Start Date/Time of Treatment",
                "Type": "Char",
                "Controlled Terms, Codelist or Format": "ISO 8601 datetime or interval",
                "Core": "Exp",
                "Order": 28.0
            },
            "EXENDTC": {
                "Variable Label": "End Date/Time of Treatment",
                "Type": "Char",
                "Controlled Terms, Codelist or Format": "ISO 8601 datetime or interval",
                "Core": "Exp",
                "Order": 29.0
            },
            "EXSTDY": {
                "Variable Label": "Study Day of Start of Treatment",
                "Type": "Num",
                "Controlled Terms, Codelist or Format": " ",
                "Core": "Perm",
                "Order": 30.0
            },
            "EXENDY": {
                "Variable Label": "Study Day of End of Treatment",
                "Type": "Num",
                "Controlled Terms, Codelist or Format": " ",
                "Core": "Perm",
                "Order": 31.0
            },
            "EXDUR": {
                "Variable Label": "Duration of Treatment",
                "Type": "Char",
                "Controlled Terms, Codelist or Format": "ISO 8601 duration",
                "Core": "Perm",
                "Order": 32.0
            },
            "EXTPT": {
                "Variable Label": "Planned Time Point Name",
                "Type": "Char",
                "Controlled Terms, Codelist or Format": " ",
                "Core": "Perm",
                "Order": 33.0
            },
            "EXTPTNUM": {
                "Variable Label": "Planned Time Point Number",
                "Type": "Num",
                "Controlled Terms, Codelist or Format": " ",
                "Core": "Perm",
                "Order": 34.0
            },
            "EXELTM": {
                "Variable Label": "Planned Elapsed Time from Time Point Ref",
                "Type": "Char",
                "Controlled Terms, Codelist or Format": "ISO 8601 duration",
                "Core": "Perm",
                "Order": 35.0
            },
            "EXTPTREF": {
                "Variable Label": "Time Point Reference",
                "Type": "Char",
                "Controlled Terms, Codelist or Format": " ",
                "Core": "Perm",
                "Order": 36.0
            },
            "EXRFTDTC": {
                "Variable Label": "Date/Time of Reference Time Point",
                "Type": "Char",
                "Controlled Terms, Codelist or Format": "ISO 8601 datetime or interval",
                "Core": "Perm",
                "Order": 37.0
            }
        },
        "FA": {
            "STUDYID": {
                "Variable Label": "Study Identifier",
                "Type": "Char",
                "Controlled Terms, Codelist or Format": " ",
                "Core": "Req",
                "Order": 1.0
            },
            "DOMAIN": {
                "Variable Label": "Domain Abbreviation",
                "Type": "Char",
                "Controlled Terms, Codelist or Format": "FA ",
                "Core": "Req",
                "Order": 2.0
            },
            "USUBJID": {
                "Variable Label": "Unique Subject Identifier",
                "Type": "Char",
                "Controlled Terms, Codelist or Format": " ",
                "Core": "Req",
                "Order": 3.0
            },
            "FASEQ": {
                "Variable Label": "Sequence Number",
                "Type": "Num",
                "Controlled Terms, Codelist or Format": " ",
                "Core": "Req",
                "Order": 4.0
            },
            "FAGRPID": {
                "Variable Label": "Group ID",
                "Type": "Char",
                "Controlled Terms, Codelist or Format": " ",
                "Core": "Perm",
                "Order": 5.0
            },
            "FASPID": {
                "Variable Label": "Sponsor-Defined Identifier",
                "Type": "Char",
                "Controlled Terms, Codelist or Format": " ",
                "Core": "Perm",
                "Order": 6.0
            },
            "FATESTCD": {
                "Variable Label": "Findings About Test Short Name",
                "Type": "Char",
                "Controlled Terms, Codelist or Format": "(FATESTCD)",
                "Core": "Req",
                "Order": 7.0
            },
            "FATEST": {
                "Variable Label": "Findings About Test Name",
                "Type": "Char",
                "Controlled Terms, Codelist or Format": "(FATEST)",
                "Core": "Req",
                "Order": 8.0
            },
            "FAOBJ": {
                "Variable Label": "Object of the Observation",
                "Type": "Char",
                "Controlled Terms, Codelist or Format": " ",
                "Core": "Req",
                "Order": 9.0
            },
            "FACAT": {
                "Variable Label": "Category for Findings About",
                "Type": "Char",
                "Controlled Terms, Codelist or Format": "*",
                "Core": "Perm",
                "Order": 10.0
            },
            "FASCAT": {
                "Variable Label": "Subcategory for Findings About",
                "Type": "Char",
                "Controlled Terms, Codelist or Format": "*",
                "Core": "Perm",
                "Order": 11.0
            },
            "FAORRES": {
                "Variable Label": "Result or Finding in Original Units",
                "Type": "Char",
                "Controlled Terms, Codelist or Format": " ",
                "Core": "Exp",
                "Order": 12.0
            },
            "FAORRESU": {
                "Variable Label": "Original Units",
                "Type": "Char",
                "Controlled Terms, Codelist or Format": "(UNIT) ",
                "Core": "Perm",
                "Order": 13.0
            },
            "FASTRESC": {
                "Variable Label": "Character Result/Finding in Std Format",
                "Type": "Char",
                "Controlled Terms, Codelist or Format": " ",
                "Core": "Exp",
                "Order": 14.0
            },
            "FASTRESN": {
                "Variable Label": "Numeric Result/Finding in Standard Units",
                "Type": "Num",
                "Controlled Terms, Codelist or Format": " ",
                "Core": "Perm",
                "Order": 15.0
            },
            "FASTRESU": {
                "Variable Label": "Standard Units",
                "Type": "Char",
                "Controlled Terms, Codelist or Format": "(UNIT) ",
                "Core": "Perm",
                "Order": 16.0
            },
            "FASTAT": {
                "Variable Label": "Completion Status",
                "Type": "Char",
                "Controlled Terms, Codelist or Format": "(ND) ",
                "Core": "Perm",
                "Order": 17.0
            },
            "FAREASND": {
                "Variable Label": "Reason Not Performed",
                "Type": "Char",
                "Controlled Terms, Codelist or Format": " ",
                "Core": "Perm",
                "Order": 18.0
            },
            "FALOC": {
                "Variable Label": "Location of the Finding About",
                "Type": "Char",
                "Controlled Terms, Codelist or Format": "(LOC) ",
                "Core": "Perm",
                "Order": 19.0
            },
            "FALAT": {
                "Variable Label": "Laterality",
                "Type": "Char",
                "Controlled Terms, Codelist or Format": "(LAT) ",
                "Core": "Perm",
                "Order": 20.0
            },
            "FALOBXFL": {
                "Variable Label": "Last Observation Before Exposure Flag",
                "Type": "Char",
                "Controlled Terms, Codelist or Format": "(NY) ",
                "Core": "Perm",
                "Order": 21.0
            },
            "FABLFL": {
                "Variable Label": "Baseline Flag",
                "Type": "Char",
                "Controlled Terms, Codelist or Format": "(NY) ",
                "Core": "Perm",
                "Order": 22.0
            },
            "FAEVAL": {
                "Variable Label": "Evaluator",
                "Type": "Char",
                "Controlled Terms, Codelist or Format": "(EVAL) ",
                "Core": "Perm",
                "Order": 23.0
            },
            "VISITNUM": {
                "Variable Label": "Visit Number",
                "Type": "Num",
                "Controlled Terms, Codelist or Format": " ",
                "Core": "Exp",
                "Order": 24.0
            },
            "VISIT": {
                "Variable Label": "Visit Name",
                "Type": "Char",
                "Controlled Terms, Codelist or Format": " ",
                "Core": "Perm",
                "Order": 25.0
            },
            "VISITDY": {
                "Variable Label": "Planned Study Day of Visit",
                "Type": "Num",
                "Controlled Terms, Codelist or Format": " ",
                "Core": "Perm",
                "Order": 26.0
            },
            "TAETORD": {
                "Variable Label": "Planned Order of Element within Arm",
                "Type": "Num",
                "Controlled Terms, Codelist or Format": " ",
                "Core": "Perm",
                "Order": 27.0
            },
            "EPOCH": {
                "Variable Label": "Epoch",
                "Type": "Char",
                "Controlled Terms, Codelist or Format": "(EPOCH) ",
                "Core": "Perm",
                "Order": 28.0
            },
            "FADTC": {
                "Variable Label": "Date/Time of Collection",
                "Type": "Char",
                "Controlled Terms, Codelist or Format": "ISO 8601 datetime or interval",
                "Core": "Exp",
                "Order": 29.0
            },
            "FADY": {
                "Variable Label": "Study Day of Collection",
                "Type": "Num",
                "Controlled Terms, Codelist or Format": " ",
                "Core": "Perm",
                "Order": 30.0
            }
        },
        "FT": {
            "STUDYID": {
                "Variable Label": "Study Identifier",
                "Type": "Char",
                "Controlled Terms, Codelist or Format": " ",
                "Core": "Req",
                "Order": 1.0
            },
            "DOMAIN": {
                "Variable Label": "Domain Abbreviation",
                "Type": "Char",
                "Controlled Terms, Codelist or Format": "FT ",
                "Core": "Req",
                "Order": 2.0
            },
            "USUBJID": {
                "Variable Label": "Unique Subject Identifier",
                "Type": "Char",
                "Controlled Terms, Codelist or Format": " ",
                "Core": "Req",
                "Order": 3.0
            },
            "FTSEQ": {
                "Variable Label": "Sequence Number",
                "Type": "Num",
                "Controlled Terms, Codelist or Format": " ",
                "Core": "Req",
                "Order": 4.0
            },
            "FTGRPID": {
                "Variable Label": "Group ID",
                "Type": "Char",
                "Controlled Terms, Codelist or Format": " ",
                "Core": "Perm",
                "Order": 5.0
            },
            "FTREFID": {
                "Variable Label": "Reference ID",
                "Type": "Char",
                "Controlled Terms, Codelist or Format": " ",
                "Core": "Perm",
                "Order": 6.0
            },
            "FTSPID": {
                "Variable Label": "Sponsor-Defined Identifier",
                "Type": "Char",
                "Controlled Terms, Codelist or Format": " ",
                "Core": "Perm",
                "Order": 7.0
            },
            "FTTESTCD": {
                "Variable Label": "Short Name of Test",
                "Type": "Char",
                "Controlled Terms, Codelist or Format": "*",
                "Core": "Req",
                "Order": 8.0
            },
            "FTTEST": {
                "Variable Label": "Name of Test",
                "Type": "Char",
                "Controlled Terms, Codelist or Format": "*",
                "Core": "Req",
                "Order": 9.0
            },
            "FTCAT": {
                "Variable Label": "Category",
                "Type": "Char",
                "Controlled Terms, Codelist or Format": "(FTCAT) ",
                "Core": "Req",
                "Order": 10.0
            },
            "FTSCAT": {
                "Variable Label": "Subcategory",
                "Type": "Char",
                "Controlled Terms, Codelist or Format": " ",
                "Core": "Perm",
                "Order": 11.0
            },
            "FTPOS": {
                "Variable Label": "Position of Subject During Observation",
                "Type": "Char",
                "Controlled Terms, Codelist or Format": "(POSITION) ",
                "Core": "Perm",
                "Order": 12.0
            },
            "FTORRES": {
                "Variable Label": "Result or Finding in Original Units",
                "Type": "Char",
                "Controlled Terms, Codelist or Format": " ",
                "Core": "Exp",
                "Order": 13.0
            },
            "FTORRESU": {
                "Variable Label": "Original Units",
                "Type": "Char",
                "Controlled Terms, Codelist or Format": "(UNIT) ",
                "Core": "Perm",
                "Order": 14.0
            },
            "FTSTRESC": {
                "Variable Label": "Result or Finding in Standard Format",
                "Type": "Char",
                "Controlled Terms, Codelist or Format": " ",
                "Core": "Exp",
                "Order": 15.0
            },
            "FTSTRESN": {
                "Variable Label": "Numeric Result/Finding in Standard Units",
                "Type": "Num",
                "Controlled Terms, Codelist or Format": " ",
                "Core": "Perm",
                "Order": 16.0
            },
            "FTSTRESU": {
                "Variable Label": "Standard Units",
                "Type": "Char",
                "Controlled Terms, Codelist or Format": "(UNIT) ",
                "Core": "Perm",
                "Order": 17.0
            },
            "FTSTAT": {
                "Variable Label": "Completion Status",
                "Type": "Char",
                "Controlled Terms, Codelist or Format": "(ND) ",
                "Core": "Perm",
                "Order": 18.0
            },
            "FTREASND": {
                "Variable Label": "Reason Not Done",
                "Type": "Char",
                "Controlled Terms, Codelist or Format": " ",
                "Core": "Perm",
                "Order": 19.0
            },
            "FTXFN": {
                "Variable Label": "External File Path",
                "Type": "Char",
                "Controlled Terms, Codelist or Format": " ",
                "Core": "Perm",
                "Order": 20.0
            },
            "FTNAM": {
                "Variable Label": "Vendor Name",
                "Type": "Char",
                "Controlled Terms, Codelist or Format": " ",
                "Core": "Perm",
                "Order": 21.0
            },
            "FTMETHOD": {
                "Variable Label": "Method of Test or Examination",
                "Type": "Char",
                "Controlled Terms, Codelist or Format": "(QRSMTHOD) ",
                "Core": "Perm",
                "Order": 22.0
            },
            "FTLOBXFL": {
                "Variable Label": "Last Observation Before Exposure Flag",
                "Type": "Char",
                "Controlled Terms, Codelist or Format": "(NY) ",
                "Core": "Exp",
                "Order": 23.0
            },
            "FTBLFL": {
                "Variable Label": "Baseline Flag",
                "Type": "Char",
                "Controlled Terms, Codelist or Format": "(NY) ",
                "Core": "Perm",
                "Order": 24.0
            },
            "FTDRVFL": {
                "Variable Label": "Derived Flag",
                "Type": "Char",
                "Controlled Terms, Codelist or Format": "(NY) ",
                "Core": "Perm",
                "Order": 25.0
            },
            "FTREPNUM": {
                "Variable Label": "Repetition Number",
                "Type": "Num",
                "Controlled Terms, Codelist or Format": " ",
                "Core": "Perm",
                "Order": 26.0
            },
            "VISITNUM": {
                "Variable Label": "Visit Number",
                "Type": "Num",
                "Controlled Terms, Codelist or Format": " ",
                "Core": "Exp",
                "Order": 27.0
            },
            "VISIT": {
                "Variable Label": "Visit Name",
                "Type": "Char",
                "Controlled Terms, Codelist or Format": " ",
                "Core": "Perm",
                "Order": 28.0
            },
            "VISITDY": {
                "Variable Label": "Planned Study Day of Visit",
                "Type": "Num",
                "Controlled Terms, Codelist or Format": " ",
                "Core": "Perm",
                "Order": 29.0
            },
            "TAETORD": {
                "Variable Label": "Planned Order of Element within Arm",
                "Type": "Num",
                "Controlled Terms, Codelist or Format": " ",
                "Core": "Perm",
                "Order": 30.0
            },
            "EPOCH": {
                "Variable Label": "Epoch",
                "Type": "Char",
                "Controlled Terms, Codelist or Format": "(EPOCH) ",
                "Core": "Perm",
                "Order": 31.0
            },
            "FTDTC": {
                "Variable Label": "Date/Time of Test",
                "Type": "Char",
                "Controlled Terms, Codelist or Format": "ISO 8601 datetime or interval",
                "Core": "Exp",
                "Order": 32.0
            },
            "FTDY": {
                "Variable Label": "Study Day of Test",
                "Type": "Num",
                "Controlled Terms, Codelist or Format": " ",
                "Core": "Perm",
                "Order": 33.0
            },
            "FTTPT": {
                "Variable Label": "Planned Time Point Name",
                "Type": "Char",
                "Controlled Terms, Codelist or Format": " ",
                "Core": "Perm",
                "Order": 34.0
            },
            "FTTPTNUM": {
                "Variable Label": "Planned Time Point Number",
                "Type": "Num",
                "Controlled Terms, Codelist or Format": " ",
                "Core": "Perm",
                "Order": 35.0
            },
            "FTELTM": {
                "Variable Label": "Planned Elapsed Time from Time Point Ref",
                "Type": "Char",
                "Controlled Terms, Codelist or Format": "ISO 8601 duration",
                "Core": "Perm",
                "Order": 36.0
            },
            "FTTPTREF": {
                "Variable Label": "Time Point Reference",
                "Type": "Char",
                "Controlled Terms, Codelist or Format": " ",
                "Core": "Perm",
                "Order": 37.0
            },
            "FTRFTDTC": {
                "Variable Label": "Date/Time of Reference Time Point",
                "Type": "Char",
                "Controlled Terms, Codelist or Format": "ISO 8601 datetime or interval",
                "Core": "Perm",
                "Order": 38.0
            }
        },
        "GF": {
            "STUDYID": {
                "Variable Label": "Study Identifier",
                "Type": "Char",
                "Controlled Terms, Codelist or Format": " ",
                "Core": "Req",
                "Order": 1.0
            },
            "DOMAIN": {
                "Variable Label": "Domain Abbreviation",
                "Type": "Char",
                "Controlled Terms, Codelist or Format": "GF ",
                "Core": "Req",
                "Order": 2.0
            },
            "USUBJID": {
                "Variable Label": "Unique Subject Identifier",
                "Type": "Char",
                "Controlled Terms, Codelist or Format": " ",
                "Core": "Req",
                "Order": 3.0
            },
            "SPDEVID": {
                "Variable Label": "Sponsor Device Identifier",
                "Type": "Char",
                "Controlled Terms, Codelist or Format": " ",
                "Core": "Perm",
                "Order": 4.0
            },
            "NHOID": {
                "Variable Label": "Non-Host Organism Identifier",
                "Type": "Char",
                "Controlled Terms, Codelist or Format": " ",
                "Core": "Perm",
                "Order": 5.0
            },
            "GFSEQ": {
                "Variable Label": "Sequence Number",
                "Type": "Num",
                "Controlled Terms, Codelist or Format": " ",
                "Core": "Req",
                "Order": 6.0
            },
            "GFGRPID": {
                "Variable Label": "Group ID",
                "Type": "Char",
                "Controlled Terms, Codelist or Format": " ",
                "Core": "Perm",
                "Order": 7.0
            },
            "GFREFID": {
                "Variable Label": "Reference ID",
                "Type": "Char",
                "Controlled Terms, Codelist or Format": " ",
                "Core": "Exp",
                "Order": 8.0
            },
            "GFSPID": {
                "Variable Label": "Sponsor-Defined Identifier",
                "Type": "Char",
                "Controlled Terms, Codelist or Format": " ",
                "Core": "Perm",
                "Order": 9.0
            },
            "GFLNKID": {
                "Variable Label": "Link ID",
                "Type": "Char",
                "Controlled Terms, Codelist or Format": " ",
                "Core": "Perm",
                "Order": 10.0
            },
            "GFLNKGRP": {
                "Variable Label": "Link Group ID",
                "Type": "Char",
                "Controlled Terms, Codelist or Format": " ",
                "Core": "Perm",
                "Order": 11.0
            },
            "GFTESTCD": {
                "Variable Label": "Short Name of Genomic Measurement",
                "Type": "Char",
                "Controlled Terms, Codelist or Format": "(GFTESTCD) ",
                "Core": "Req",
                "Order": 12.0
            },
            "GFTEST": {
                "Variable Label": "Name of Genomic Measurement",
                "Type": "Char",
                "Controlled Terms, Codelist or Format": "(GFTEST) ",
                "Core": "Req",
                "Order": 13.0
            },
            "GFTSTDTL": {
                "Variable Label": "Measurement, Test, or Examination Detail",
                "Type": "Char",
                "Controlled Terms, Codelist or Format": "(GFTSDTL) ",
                "Core": "Perm",
                "Order": 14.0
            },
            "GFCAT": {
                "Variable Label": "Category for Genomic Finding",
                "Type": "Char",
                "Controlled Terms, Codelist or Format": " ",
                "Core": "Perm",
                "Order": 15.0
            },
            "GFSCAT": {
                "Variable Label": "Subcategory for Genomic Finding",
                "Type": "Char",
                "Controlled Terms, Codelist or Format": " ",
                "Core": "Perm",
                "Order": 16.0
            },
            "GFORRES": {
                "Variable Label": "Result or Finding in Original Units",
                "Type": "Char",
                "Controlled Terms, Codelist or Format": " ",
                "Core": "Exp",
                "Order": 17.0
            },
            "GFORRESU": {
                "Variable Label": "Original Units",
                "Type": "Char",
                "Controlled Terms, Codelist or Format": "(UNIT) ",
                "Core": "Perm",
                "Order": 18.0
            },
            "GFORREF": {
                "Variable Label": "Reference Result in Original Units",
                "Type": "Char",
                "Controlled Terms, Codelist or Format": " ",
                "Core": "Perm",
                "Order": 19.0
            },
            "GFSTRESC": {
                "Variable Label": "Result or Finding in Standard Format",
                "Type": "Char",
                "Controlled Terms, Codelist or Format": " ",
                "Core": "Exp",
                "Order": 20.0
            },
            "GFSTRESN": {
                "Variable Label": "Numeric Result/Finding in Standard Units",
                "Type": "Num",
                "Controlled Terms, Codelist or Format": " ",
                "Core": "Perm",
                "Order": 21.0
            },
            "GFSTRESU": {
                "Variable Label": "Standard Units",
                "Type": "Char",
                "Controlled Terms, Codelist or Format": "(UNIT) ",
                "Core": "Perm",
                "Order": 22.0
            },
            "GFSTREFC": {
                "Variable Label": "Reference Result in Standard Format",
                "Type": "Char",
                "Controlled Terms, Codelist or Format": " ",
                "Core": "Perm",
                "Order": 23.0
            },
            "GFSTREFN": {
                "Variable Label": "Numeric Reference Result in Std Units",
                "Type": "Num",
                "Controlled Terms, Codelist or Format": " ",
                "Core": "Perm",
                "Order": 24.0
            },
            "GFRESCAT": {
                "Variable Label": "Result Category",
                "Type": "Char",
                "Controlled Terms, Codelist or Format": " ",
                "Core": "Perm",
                "Order": 25.0
            },
            "GFINHERT": {
                "Variable Label": "Inheritability",
                "Type": "Char",
                "Controlled Terms, Codelist or Format": "(INHERTGF) ",
                "Core": "Perm",
                "Order": 26.0
            },
            "GFGENREF": {
                "Variable Label": "Genome Reference",
                "Type": "Char",
                "Controlled Terms, Codelist or Format": " ",
                "Core": "Perm",
                "Order": 27.0
            },
            "GFCHROM": {
                "Variable Label": "Chromosome Identifier",
                "Type": "Char",
                "Controlled Terms, Codelist or Format": " ",
                "Core": "Perm",
                "Order": 28.0
            },
            "GFSYM": {
                "Variable Label": "Genomic Symbol",
                "Type": "Char",
                "Controlled Terms, Codelist or Format": "*",
                "Core": "Perm",
                "Order": 29.0
            },
            "GFSYMTYP": {
                "Variable Label": "Genomic Symbol Type",
                "Type": "Char",
                "Controlled Terms, Codelist or Format": "(SYMTYPGF) ",
                "Core": "Perm",
                "Order": 30.0
            },
            "GFGENLOC": {
                "Variable Label": "Genetic Location",
                "Type": "Char",
                "Controlled Terms, Codelist or Format": " ",
                "Core": "Perm",
                "Order": 31.0
            },
            "GFGENSR": {
                "Variable Label": "Genetic Sub-Region",
                "Type": "Char",
                "Controlled Terms, Codelist or Format": " ",
                "Core": "Perm",
                "Order": 32.0
            },
            "GFSEQID": {
                "Variable Label": "Sequence Identifier",
                "Type": "Char",
                "Controlled Terms, Codelist or Format": " ",
                "Core": "Perm",
                "Order": 33.0
            },
            "GFPVRID": {
                "Variable Label": "Published Variant Identifier",
                "Type": "Char",
                "Controlled Terms, Codelist or Format": " ",
                "Core": "Perm",
                "Order": 34.0
            },
            "GFCOPYID": {
                "Variable Label": "Copy Identifier",
                "Type": "Char",
                "Controlled Terms, Codelist or Format": " ",
                "Core": "Perm",
                "Order": 35.0
            },
            "GFSTAT": {
                "Variable Label": "Completion Status",
                "Type": "Char",
                "Controlled Terms, Codelist or Format": "(ND) ",
                "Core": "Perm",
                "Order": 36.0
            },
            "GFREASND": {
                "Variable Label": "Reason Test Not Done",
                "Type": "Char",
                "Controlled Terms, Codelist or Format": " ",
                "Core": "Perm",
                "Order": 37.0
            },
            "GFXFN": {
                "Variable Label": "External File Path",
                "Type": "Char",
                "Controlled Terms, Codelist or Format": " ",
                "Core": "Perm",
                "Order": 38.0
            },
            "GFNAM": {
                "Variable Label": "Laboratory/Vendor Name",
                "Type": "Char",
                "Controlled Terms, Codelist or Format": " ",
                "Core": "Perm",
                "Order": 39.0
            },
            "GFSPEC": {
                "Variable Label": "Specimen Material Type",
                "Type": "Char",
                "Controlled Terms, Codelist or Format": "(GENSMP) ",
                "Core": "Perm",
                "Order": 40.0
            },
            "GFMETHOD": {
                "Variable Label": "Method of Test or Examination",
                "Type": "Char",
                "Controlled Terms, Codelist or Format": "(METHOD) ",
                "Core": "Exp",
                "Order": 41.0
            },
            "GFRUNID": {
                "Variable Label": "Run ID",
                "Type": "Char",
                "Controlled Terms, Codelist or Format": " ",
                "Core": "Perm",
                "Order": 42.0
            },
            "GFANMETH": {
                "Variable Label": "Analysis Method",
                "Type": "Char",
                "Controlled Terms, Codelist or Format": "(GFANMET) ",
                "Core": "Perm",
                "Order": 43.0
            },
            "GFBLFL": {
                "Variable Label": "Baseline Flag",
                "Type": "Char",
                "Controlled Terms, Codelist or Format": "(NY) ",
                "Core": "Perm",
                "Order": 44.0
            },
            "GFDRVFL": {
                "Variable Label": "Derived Flag",
                "Type": "Char",
                "Controlled Terms, Codelist or Format": "(NY) ",
                "Core": "Perm",
                "Order": 45.0
            },
            "GFLLOQ": {
                "Variable Label": "Lower Limit of Quantitation",
                "Type": "Num",
                "Controlled Terms, Codelist or Format": " ",
                "Core": "Perm",
                "Order": 46.0
            },
            "GFREPNUM": {
                "Variable Label": "Repetition Number",
                "Type": "Num",
                "Controlled Terms, Codelist or Format": " ",
                "Core": "Perm",
                "Order": 47.0
            },
            "VISITNUM": {
                "Variable Label": "Visit Number",
                "Type": "Num",
                "Controlled Terms, Codelist or Format": " ",
                "Core": "Exp",
                "Order": 48.0
            },
            "VISIT": {
                "Variable Label": "Visit Name",
                "Type": "Char",
                "Controlled Terms, Codelist or Format": " ",
                "Core": "Perm",
                "Order": 49.0
            },
            "VISITDY": {
                "Variable Label": "Planned Study Day of Visit",
                "Type": "Num",
                "Controlled Terms, Codelist or Format": " ",
                "Core": "Perm",
                "Order": 50.0
            },
            "GFDTC": {
                "Variable Label": "Date/Time of Specimen Collection",
                "Type": "Char",
                "Controlled Terms, Codelist or Format": "ISO 8601 datetime or interval",
                "Core": "Exp",
                "Order": 51.0
            },
            "GFDY": {
                "Variable Label": "Study Day of Specimen Collection",
                "Type": "Num",
                "Controlled Terms, Codelist or Format": " ",
                "Core": "Perm",
                "Order": 52.0
            },
            "GFTPT": {
                "Variable Label": "Planned Time Point Name",
                "Type": "Char",
                "Controlled Terms, Codelist or Format": " ",
                "Core": "Perm",
                "Order": 53.0
            },
            "GFTPTNUM": {
                "Variable Label": "Planned Time Point Number",
                "Type": "Num",
                "Controlled Terms, Codelist or Format": " ",
                "Core": "Perm",
                "Order": 54.0
            },
            "GFELTM": {
                "Variable Label": "Planned Elapsed Time from Time Point Ref",
                "Type": "Char",
                "Controlled Terms, Codelist or Format": "ISO 8601 duration",
                "Core": "Perm",
                "Order": 55.0
            },
            "GFTPTREF": {
                "Variable Label": "Time Point Reference",
                "Type": "Char",
                "Controlled Terms, Codelist or Format": " ",
                "Core": "Perm",
                "Order": 56.0
            },
            "GFRFTDTC": {
                "Variable Label": "Date/Time of Reference Time Point",
                "Type": "Char",
                "Controlled Terms, Codelist or Format": "ISO 8601 datetime or interval",
                "Core": "Perm",
                "Order": 57.0
            }
        },
        "HO": {
            "STUDYID": {
                "Variable Label": "Study Identifier",
                "Type": "Char",
                "Controlled Terms, Codelist or Format": " ",
                "Core": "Req",
                "Order": 1.0
            },
            "DOMAIN": {
                "Variable Label": "Domain Abbreviation",
                "Type": "Char",
                "Controlled Terms, Codelist or Format": "HO ",
                "Core": "Req",
                "Order": 2.0
            },
            "USUBJID": {
                "Variable Label": "Unique Subject Identifier",
                "Type": "Char",
                "Controlled Terms, Codelist or Format": " ",
                "Core": "Req",
                "Order": 3.0
            },
            "HOSEQ": {
                "Variable Label": "Sequence Number",
                "Type": "Num",
                "Controlled Terms, Codelist or Format": " ",
                "Core": "Req",
                "Order": 4.0
            },
            "HOGRPID": {
                "Variable Label": "Group ID",
                "Type": "Char",
                "Controlled Terms, Codelist or Format": " ",
                "Core": "Perm",
                "Order": 5.0
            },
            "HOREFID": {
                "Variable Label": "Reference ID",
                "Type": "Char",
                "Controlled Terms, Codelist or Format": " ",
                "Core": "Perm",
                "Order": 6.0
            },
            "HOSPID": {
                "Variable Label": "Sponsor-Defined Identifier",
                "Type": "Char",
                "Controlled Terms, Codelist or Format": " ",
                "Core": "Perm",
                "Order": 7.0
            },
            "HOTERM": {
                "Variable Label": "Healthcare Encounter Term",
                "Type": "Char",
                "Controlled Terms, Codelist or Format": " ",
                "Core": "Req",
                "Order": 8.0
            },
            "HODECOD": {
                "Variable Label": "Dictionary-Derived Term",
                "Type": "Char",
                "Controlled Terms, Codelist or Format": "(HODECOD) ",
                "Core": "Perm",
                "Order": 9.0
            },
            "HOCAT": {
                "Variable Label": "Category for Healthcare Encounter",
                "Type": "Char",
                "Controlled Terms, Codelist or Format": "*",
                "Core": "Perm",
                "Order": 10.0
            },
            "HOSCAT": {
                "Variable Label": "Subcategory for Healthcare Encounter",
                "Type": "Char",
                "Controlled Terms, Codelist or Format": "*",
                "Core": "Perm",
                "Order": 11.0
            },
            "HOPRESP": {
                "Variable Label": "Pre-Specified Healthcare Encounter",
                "Type": "Char",
                "Controlled Terms, Codelist or Format": "(NY) ",
                "Core": "Perm",
                "Order": 12.0
            },
            "HOOCCUR": {
                "Variable Label": "Healthcare Encounter Occurrence",
                "Type": "Char",
                "Controlled Terms, Codelist or Format": "(NY) ",
                "Core": "Perm",
                "Order": 13.0
            },
            "HOSTAT": {
                "Variable Label": "Completion Status",
                "Type": "Char",
                "Controlled Terms, Codelist or Format": "(ND) ",
                "Core": "Perm",
                "Order": 14.0
            },
            "HOREASND": {
                "Variable Label": "Reason Healthcare Encounter Not Done",
                "Type": "Char",
                "Controlled Terms, Codelist or Format": " ",
                "Core": "Perm",
                "Order": 15.0
            },
            "TAETORD": {
                "Variable Label": "Planned Order of Element within Arm",
                "Type": "Num",
                "Controlled Terms, Codelist or Format": " ",
                "Core": "Perm",
                "Order": 16.0
            },
            "EPOCH": {
                "Variable Label": "Epoch",
                "Type": "Char",
                "Controlled Terms, Codelist or Format": "(EPOCH) ",
                "Core": "Perm",
                "Order": 17.0
            },
            "HODTC": {
                "Variable Label": "Date/Time of Event Collection",
                "Type": "Char",
                "Controlled Terms, Codelist or Format": "ISO 8601 datetime or interval",
                "Core": "Perm",
                "Order": 18.0
            },
            "HOSTDTC": {
                "Variable Label": "Start Date/Time of Healthcare Encounter",
                "Type": "Char",
                "Controlled Terms, Codelist or Format": "ISO 8601 datetime or interval",
                "Core": "Exp",
                "Order": 19.0
            },
            "HOENDTC": {
                "Variable Label": "End Date/Time of Healthcare Encounter",
                "Type": "Char",
                "Controlled Terms, Codelist or Format": "ISO 8601 datetime or interval",
                "Core": "Perm",
                "Order": 20.0
            },
            "HODY": {
                "Variable Label": "Study Day of Event Collection",
                "Type": "Num",
                "Controlled Terms, Codelist or Format": " ",
                "Core": "Perm",
                "Order": 21.0
            },
            "HOSTDY": {
                "Variable Label": "Study Day of Start of Encounter",
                "Type": "Num",
                "Controlled Terms, Codelist or Format": " ",
                "Core": "Perm",
                "Order": 22.0
            },
            "HOENDY": {
                "Variable Label": "Study Day of End of Healthcare Encounter",
                "Type": "Num",
                "Controlled Terms, Codelist or Format": " ",
                "Core": "Perm",
                "Order": 23.0
            },
            "HODUR": {
                "Variable Label": "Duration of Healthcare Encounter",
                "Type": "Char",
                "Controlled Terms, Codelist or Format": "ISO 8601 duration",
                "Core": "Perm",
                "Order": 24.0
            },
            "HOSTRTPT": {
                "Variable Label": "Start Relative to Reference Time Point",
                "Type": "Char",
                "Controlled Terms, Codelist or Format": "(STENRF) ",
                "Core": "Perm",
                "Order": 25.0
            },
            "HOSTTPT": {
                "Variable Label": "Start Reference Time Point",
                "Type": "Char",
                "Controlled Terms, Codelist or Format": " ",
                "Core": "Perm",
                "Order": 26.0
            },
            "HOENRTPT": {
                "Variable Label": "End Relative to Reference Time Point",
                "Type": "Char",
                "Controlled Terms, Codelist or Format": "(STENRF) ",
                "Core": "Perm",
                "Order": 27.0
            },
            "HOENTPT": {
                "Variable Label": "End Reference Time Point",
                "Type": "Char",
                "Controlled Terms, Codelist or Format": " ",
                "Core": "Perm",
                "Order": 28.0
            }
        },
        "IE": {
            "STUDYID": {
                "Variable Label": "Study Identifier",
                "Type": "Char",
                "Controlled Terms, Codelist or Format": " ",
                "Core": "Req",
                "Order": 1.0
            },
            "DOMAIN": {
                "Variable Label": "Domain Abbreviation",
                "Type": "Char",
                "Controlled Terms, Codelist or Format": "IE ",
                "Core": "Req",
                "Order": 2.0
            },
            "USUBJID": {
                "Variable Label": "Unique Subject Identifier",
                "Type": "Char",
                "Controlled Terms, Codelist or Format": " ",
                "Core": "Req",
                "Order": 3.0
            },
            "IESEQ": {
                "Variable Label": "Sequence Number",
                "Type": "Num",
                "Controlled Terms, Codelist or Format": " ",
                "Core": "Req",
                "Order": 4.0
            },
            "IESPID": {
                "Variable Label": "Sponsor-Defined Identifier",
                "Type": "Char",
                "Controlled Terms, Codelist or Format": " ",
                "Core": "Perm",
                "Order": 5.0
            },
            "IETESTCD": {
                "Variable Label": "Inclusion/Exclusion Criterion Short Name",
                "Type": "Char",
                "Controlled Terms, Codelist or Format": "*",
                "Core": "Req",
                "Order": 6.0
            },
            "IETEST": {
                "Variable Label": "Inclusion/Exclusion Criterion",
                "Type": "Char",
                "Controlled Terms, Codelist or Format": " ",
                "Core": "Req",
                "Order": 7.0
            },
            "IECAT": {
                "Variable Label": "Inclusion/Exclusion Category",
                "Type": "Char",
                "Controlled Terms, Codelist or Format": "(IECAT) ",
                "Core": "Req",
                "Order": 8.0
            },
            "IESCAT": {
                "Variable Label": "Inclusion/Exclusion Subcategory",
                "Type": "Char",
                "Controlled Terms, Codelist or Format": "*",
                "Core": "Perm",
                "Order": 9.0
            },
            "IEORRES": {
                "Variable Label": "I/E Criterion Original Result",
                "Type": "Char",
                "Controlled Terms, Codelist or Format": "(NY) ",
                "Core": "Req",
                "Order": 10.0
            },
            "IESTRESC": {
                "Variable Label": "I/E Criterion Result in Std Format",
                "Type": "Char",
                "Controlled Terms, Codelist or Format": "(NY) ",
                "Core": "Req",
                "Order": 11.0
            },
            "VISITNUM": {
                "Variable Label": "Visit Number",
                "Type": "Num",
                "Controlled Terms, Codelist or Format": " ",
                "Core": "Perm",
                "Order": 12.0
            },
            "VISIT": {
                "Variable Label": "Visit Name",
                "Type": "Char",
                "Controlled Terms, Codelist or Format": " ",
                "Core": "Perm",
                "Order": 13.0
            },
            "VISITDY": {
                "Variable Label": "Planned Study Day of Visit",
                "Type": "Num",
                "Controlled Terms, Codelist or Format": " ",
                "Core": "Perm",
                "Order": 14.0
            },
            "TAETORD": {
                "Variable Label": "Planned Order of Element within Arm",
                "Type": "Num",
                "Controlled Terms, Codelist or Format": " ",
                "Core": "Perm",
                "Order": 15.0
            },
            "EPOCH": {
                "Variable Label": "Epoch",
                "Type": "Char",
                "Controlled Terms, Codelist or Format": "(EPOCH) ",
                "Core": "Perm",
                "Order": 16.0
            },
            "IEDTC": {
                "Variable Label": "Date/Time of Collection",
                "Type": "Char",
                "Controlled Terms, Codelist or Format": "ISO 8601 datetime or interval",
                "Core": "Perm",
                "Order": 17.0
            },
            "IEDY": {
                "Variable Label": "Study Day of Collection",
                "Type": "Num",
                "Controlled Terms, Codelist or Format": " ",
                "Core": "Perm",
                "Order": 18.0
            }
        },
        "IS": {
            "STUDYID": {
                "Variable Label": "Study Identifier",
                "Type": "Char",
                "Controlled Terms, Codelist or Format": " ",
                "Core": "Req",
                "Order": 1.0
            },
            "DOMAIN": {
                "Variable Label": "Domain Abbreviation",
                "Type": "Char",
                "Controlled Terms, Codelist or Format": "IS ",
                "Core": "Req",
                "Order": 2.0
            },
            "USUBJID": {
                "Variable Label": "Unique Subject Identifier",
                "Type": "Char",
                "Controlled Terms, Codelist or Format": " ",
                "Core": "Req",
                "Order": 3.0
            },
            "NHOID": {
                "Variable Label": "Non-host Organism ID",
                "Type": "Char",
                "Controlled Terms, Codelist or Format": " ",
                "Core": "Perm",
                "Order": 4.0
            },
            "ISSEQ": {
                "Variable Label": "Sequence Number",
                "Type": "Num",
                "Controlled Terms, Codelist or Format": " ",
                "Core": "Req",
                "Order": 5.0
            },
            "ISGRPID": {
                "Variable Label": "Group ID",
                "Type": "Char",
                "Controlled Terms, Codelist or Format": " ",
                "Core": "Perm",
                "Order": 6.0
            },
            "ISREFID": {
                "Variable Label": "Reference ID",
                "Type": "Char",
                "Controlled Terms, Codelist or Format": " ",
                "Core": "Perm",
                "Order": 7.0
            },
            "ISSPID": {
                "Variable Label": "Sponsor-Defined Identifier",
                "Type": "Char",
                "Controlled Terms, Codelist or Format": " ",
                "Core": "Perm",
                "Order": 8.0
            },
            "ISTESTCD": {
                "Variable Label": "Immunogenicity Test/Exam Short Name",
                "Type": "Char",
                "Controlled Terms, Codelist or Format": "(ISTESTCD) ",
                "Core": "Req",
                "Order": 9.0
            },
            "ISTEST": {
                "Variable Label": "Immunogenicity Test or Examination Name",
                "Type": "Char",
                "Controlled Terms, Codelist or Format": "(ISTEST) ",
                "Core": "Req",
                "Order": 10.0
            },
            "ISTSTCND": {
                "Variable Label": "Test Condition",
                "Type": "Char",
                "Controlled Terms, Codelist or Format": "(TESTCOND) ",
                "Core": "Perm",
                "Order": 11.0
            },
            "ISCNDAGT": {
                "Variable Label": "Test Condition Agent",
                "Type": "Char",
                "Controlled Terms, Codelist or Format": " ",
                "Core": "Perm",
                "Order": 12.0
            },
            "ISBDAGNT": {
                "Variable Label": "Binding Agent",
                "Type": "Char",
                "Controlled Terms, Codelist or Format": "(MICROORG)(ISBDAGT) ",
                "Core": "Perm",
                "Order": 13.0
            },
            "ISTSTOPO": {
                "Variable Label": "Test Operational Objective",
                "Type": "Char",
                "Controlled Terms, Codelist or Format": "(TSTOPOBJ) ",
                "Core": "Perm",
                "Order": 14.0
            },
            "ISMSCBCE": {
                "Variable Label": "Molecule Secreted by Cells",
                "Type": "Char",
                "Controlled Terms, Codelist or Format": " ",
                "Core": "Perm",
                "Order": 15.0
            },
            "ISTSTDTL": {
                "Variable Label": "Test Detail",
                "Type": "Char",
                "Controlled Terms, Codelist or Format": " ",
                "Core": "Perm",
                "Order": 16.0
            },
            "ISCAT": {
                "Variable Label": "Category for Immunogenicity Test",
                "Type": "Char",
                "Controlled Terms, Codelist or Format": "*",
                "Core": "Perm",
                "Order": 17.0
            },
            "ISSCAT": {
                "Variable Label": "Subcategory for Immunogenicity Test",
                "Type": "Char",
                "Controlled Terms, Codelist or Format": "*",
                "Core": "Perm",
                "Order": 18.0
            },
            "ISORRES": {
                "Variable Label": "Results or Findings in Original Units",
                "Type": "Char",
                "Controlled Terms, Codelist or Format": " ",
                "Core": "Exp",
                "Order": 19.0
            },
            "ISORRESU": {
                "Variable Label": "Original Units",
                "Type": "Char",
                "Controlled Terms, Codelist or Format": "(UNIT) ",
                "Core": "Exp",
                "Order": 20.0
            },
